timestamp,t1,t2,t3,t4,t5,ax,ay,az,gx,gy,gz,label
2026-10-07T00:37:47.090,1190.0,0.0,0.0,0.0,0.0,0.0,5660.0,1772.0,16136.0,-377.0,1033.0,idle
2026-10-07T00:37:47.129,1240.0,0.0,0.0,0.0,0.0,0.0,5596.0,1620.0,16208.0,-355.0,1069.0,idle
2026-10-07T00:37:47.181,1290.0,0.0,0.0,0.0,0.0,0.0,5260.0,2244.0,16340.0,-617.0,906.0,idle
2026-10-07T00:37:47.230,1340.0,0.0,0.0,0.0,0.0,0.0,5664.0,1908.0,16360.0,-335.0,730.0,idle
2026-10-07T00:37:47.281,1390.0,0.0,0.0,0.0,0.0,0.0,5724.0,2004.0,16148.0,-532.0,1253.0,idle
2026-10-07T00:37:47.331,1440.0,0.0,0.0,0.0,0.0,0.0,5588.0,1744.0,16172.0,-615.0,922.0,idle
2026-10-07T00:37:47.377,1490.0,0.0,0.0,0.0,0.0,0.0,5628.0,1552.0,16264.0,-338.0,923.0,idle
2026-10-07T00:37:47.427,1540.0,0.0,0.0,0.0,0.0,0.0,5668.0,1808.0,16152.0,-265.0,752.0,idle
2026-10-07T00:37:47.485,1590.0,0.0,0.0,0.0,0.0,0.0,5696.0,1948.0,16268.0,-201.0,977.0,idle
2026-10-07T00:37:47.528,1640.0,0.0,0.0,0.0,0.0,0.0,5544.0,1976.0,16328.0,-437.0,1120.0,idle
2026-10-07T00:37:47.577,1690.0,0.0,0.0,0.0,0.0,0.0,5568.0,1824.0,16216.0,-355.0,857.0,idle
2026-10-07T00:37:47.630,1740.0,0.0,0.0,0.0,0.0,0.0,5652.0,1988.0,16124.0,-357.0,726.0,idle
2026-10-07T00:37:47.683,1790.0,0.0,0.0,0.0,0.0,0.0,5788.0,1980.0,16268.0,-367.0,830.0,idle
2026-10-07T00:37:47.728,1840.0,0.0,0.0,0.0,0.0,0.0,5680.0,2088.0,16244.0,-431.0,983.0,idle
2026-10-07T00:37:47.781,1890.0,0.0,0.0,0.0,0.0,0.0,5848.0,1964.0,16296.0,-404.0,894.0,idle
2026-10-07T00:37:47.832,1940.0,0.0,0.0,0.0,0.0,0.0,5836.0,2124.0,16284.0,-476.0,954.0,idle
2026-10-07T00:37:47.875,1990.0,0.0,0.0,0.0,0.0,0.0,5712.0,1996.0,16148.0,-429.0,1133.0,idle
2026-10-07T00:37:47.928,2040.0,0.0,0.0,0.0,0.0,0.0,5664.0,2024.0,16300.0,-410.0,990.0,idle
2026-10-07T00:37:47.982,2090.0,0.0,0.0,0.0,0.0,0.0,5788.0,1804.0,16116.0,-392.0,891.0,idle
2026-10-07T00:37:48.028,2140.0,0.0,0.0,0.0,0.0,0.0,5724.0,2176.0,16316.0,-403.0,968.0,idle
2026-10-07T00:37:48.078,2190.0,0.0,0.0,0.0,0.0,0.0,5964.0,2016.0,15956.0,-524.0,1001.0,idle
2026-10-07T00:37:48.131,2240.0,0.0,0.0,0.0,0.0,0.0,5784.0,2064.0,16084.0,-414.0,1215.0,idle
2026-10-07T00:37:48.185,2290.0,0.0,0.0,0.0,0.0,0.0,5340.0,1976.0,16372.0,-565.0,1214.0,idle
2026-10-07T00:37:48.228,2340.0,0.0,0.0,0.0,0.0,0.0,5244.0,1760.0,16536.0,-378.0,777.0,idle
2026-10-07T00:37:48.284,2390.0,0.0,0.0,0.0,0.0,0.0,5856.0,1960.0,16188.0,-229.0,242.0,idle
2026-10-07T00:37:48.331,2440.0,0.0,0.0,0.0,0.0,0.0,6244.0,2140.0,15928.0,-301.0,896.0,idle
2026-10-07T00:37:48.380,2490.0,0.0,0.0,0.0,0.0,0.0,6064.0,2156.0,16172.0,-425.0,1161.0,idle
2026-10-07T00:37:48.430,2540.0,0.0,0.0,0.0,0.0,0.0,5824.0,2240.0,16108.0,-577.0,1206.0,idle
2026-10-07T00:37:48.476,2590.0,0.0,0.0,0.0,0.0,0.0,5656.0,2072.0,16216.0,-572.0,1114.0,idle
2026-10-07T00:37:48.534,2640.0,0.0,0.0,0.0,0.0,0.0,5536.0,2132.0,16180.0,-606.0,1074.0,idle
2026-10-07T00:37:48.579,2690.0,0.0,0.0,0.0,0.0,0.0,5668.0,2052.0,16116.0,-637.0,1069.0,idle
2026-10-07T00:37:48.633,2740.0,0.0,0.0,0.0,0.0,0.0,5712.0,2032.0,16076.0,-646.0,1127.0,idle
2026-10-07T00:37:48.675,2790.0,0.0,0.0,0.0,0.0,0.0,5764.0,1920.0,16100.0,-611.0,1084.0,idle
2026-10-07T00:37:48.728,2840.0,0.0,0.0,0.0,0.0,0.0,5688.0,2020.0,16220.0,-603.0,1044.0,idle
2026-10-07T00:37:48.781,2890.0,0.0,0.0,0.0,0.0,0.0,5612.0,1896.0,16136.0,-590.0,1116.0,idle
2026-10-07T00:37:48.831,2940.0,0.0,0.0,0.0,0.0,0.0,5592.0,2008.0,16260.0,-493.0,1066.0,idle
2026-10-07T00:37:48.879,2990.0,0.0,0.0,0.0,0.0,0.0,5528.0,1936.0,16284.0,-466.0,962.0,idle
2026-10-07T00:37:48.931,3040.0,0.0,0.0,0.0,0.0,0.0,5620.0,1968.0,16132.0,-470.0,1035.0,idle
2026-10-07T00:37:48.973,3090.0,0.0,0.0,0.0,0.0,0.0,5532.0,1988.0,16272.0,-462.0,997.0,idle
2026-10-07T00:37:49.027,3140.0,0.0,0.0,0.0,0.0,0.0,5504.0,1924.0,16252.0,-490.0,735.0,idle
2026-10-07T00:37:49.080,3190.0,0.0,0.0,0.0,0.0,0.0,5816.0,1884.0,16160.0,-372.0,746.0,idle
2026-10-07T00:37:49.125,3240.0,0.0,0.0,0.0,0.0,0.0,5964.0,2188.0,16168.0,-336.0,972.0,idle
2026-10-07T00:37:49.177,3290.0,0.0,0.0,0.0,0.0,0.0,5796.0,2176.0,16180.0,-500.0,1026.0,idle
2026-10-07T00:37:49.230,3340.0,0.0,0.0,0.0,0.0,0.0,5584.0,1928.0,16076.0,-585.0,1131.0,idle
2026-10-07T00:37:49.273,3390.0,0.0,0.0,0.0,0.0,0.0,5588.0,1960.0,16128.0,-425.0,932.0,idle
2026-10-07T00:37:49.334,3440.0,0.0,0.0,0.0,0.0,0.0,5816.0,2112.0,16324.0,-472.0,650.0,idle
2026-10-07T00:37:49.382,3490.0,0.0,0.0,0.0,0.0,0.0,5812.0,2116.0,15944.0,-575.0,940.0,idle
2026-10-07T00:37:49.433,3540.0,0.0,0.0,0.0,0.0,0.0,5816.0,2036.0,16216.0,-542.0,1124.0,idle
2026-10-07T00:37:49.478,3590.0,0.0,0.0,0.0,0.0,0.0,5748.0,2004.0,16224.0,-494.0,927.0,idle
2026-10-07T00:37:49.528,3640.0,0.0,0.0,0.0,0.0,0.0,5660.0,1932.0,16064.0,-540.0,980.0,idle
2026-10-07T00:37:49.582,3690.0,0.0,0.0,0.0,0.0,0.0,5780.0,2020.0,16232.0,-480.0,775.0,idle
2026-10-07T00:37:49.635,3740.0,0.0,0.0,0.0,0.0,0.0,5840.0,2012.0,16240.0,-435.0,980.0,idle
2026-10-07T00:37:49.678,3790.0,0.0,0.0,0.0,0.0,0.0,5920.0,1996.0,16020.0,-478.0,798.0,idle
2026-10-07T00:37:49.731,3840.0,0.0,0.0,0.0,0.0,0.0,5856.0,2080.0,16036.0,-469.0,976.0,idle
2026-10-07T00:37:49.774,3890.0,0.0,0.0,0.0,0.0,0.0,5620.0,2008.0,16176.0,-555.0,1069.0,idle
2026-10-07T00:37:49.835,3940.0,0.0,0.0,0.0,0.0,0.0,5760.0,1904.0,16072.0,-346.0,898.0,idle
2026-10-07T00:37:49.880,3990.0,0.0,0.0,0.0,0.0,0.0,6024.0,2188.0,16124.0,-483.0,745.0,idle
2026-10-07T00:37:49.931,4040.0,0.0,0.0,0.0,0.0,0.0,6076.0,2076.0,15936.0,-493.0,1057.0,idle
2026-10-07T00:37:49.979,4090.0,0.0,0.0,0.0,0.0,0.0,5708.0,2108.0,16076.0,-541.0,1153.0,idle
2026-10-07T00:37:50.030,4140.0,0.0,0.0,0.0,0.0,0.0,5752.0,1892.0,16080.0,-525.0,998.0,idle
2026-10-07T00:37:50.075,4190.0,0.0,0.0,0.0,0.0,0.0,5836.0,1984.0,16108.0,-481.0,1032.0,idle
2026-10-07T00:37:50.135,4240.0,0.0,0.0,0.0,0.0,0.0,5624.0,2052.0,16204.0,-514.0,1010.0,idle
2026-10-07T00:37:50.179,4290.0,0.0,0.0,0.0,0.0,0.0,5764.0,1916.0,16164.0,-543.0,980.0,idle
2026-10-07T00:37:50.233,4340.0,0.0,0.0,0.0,0.0,0.0,5772.0,2028.0,16212.0,-499.0,945.0,idle
2026-10-07T00:37:50.275,4390.0,0.0,0.0,0.0,0.0,0.0,5804.0,1976.0,16096.0,-469.0,888.0,idle
2026-10-07T00:37:50.335,4440.0,0.0,0.0,0.0,0.0,0.0,5860.0,2124.0,16100.0,-455.0,1037.0,idle
2026-10-07T00:37:50.381,4490.0,0.0,0.0,0.0,0.0,0.0,5808.0,2068.0,16180.0,-484.0,1053.0,idle
2026-10-07T00:37:50.435,4540.0,0.0,0.0,0.0,0.0,0.0,5852.0,1908.0,16012.0,-512.0,949.0,idle
2026-10-07T00:37:50.478,4590.0,0.0,0.0,0.0,0.0,0.0,5748.0,2036.0,16188.0,-389.0,1044.0,idle
2026-10-07T00:37:50.531,4640.0,0.0,0.0,0.0,0.0,0.0,5700.0,2036.0,16220.0,-483.0,942.0,idle
2026-10-07T00:37:50.578,4690.0,0.0,0.0,0.0,0.0,0.0,5852.0,2108.0,16088.0,-464.0,903.0,idle
2026-10-07T00:37:50.627,4740.0,0.0,0.0,0.0,0.0,0.0,5888.0,1928.0,16232.0,-420.0,941.0,idle
2026-10-07T00:37:50.680,4790.0,0.0,0.0,0.0,0.0,0.0,5748.0,2196.0,16072.0,-461.0,998.0,idle
2026-10-07T00:37:50.734,4840.0,0.0,0.0,0.0,0.0,0.0,5748.0,1860.0,16092.0,-424.0,1047.0,idle
2026-10-07T00:37:50.777,4890.0,0.0,0.0,0.0,0.0,0.0,5752.0,2180.0,16172.0,-502.0,835.0,idle
2026-10-07T00:37:50.830,4940.0,0.0,0.0,0.0,0.0,0.0,5988.0,1960.0,16136.0,-484.0,993.0,idle
2026-10-07T00:37:50.873,4990.0,0.0,0.0,0.0,0.0,0.0,5780.0,2152.0,16140.0,-475.0,1113.0,idle
2026-10-07T00:37:50.933,5040.0,0.0,0.0,0.0,0.0,0.0,5768.0,2040.0,16120.0,-553.0,967.0,idle
2026-10-07T00:37:50.980,5090.0,0.0,0.0,0.0,0.0,0.0,5756.0,2072.0,16072.0,-497.0,933.0,idle
2026-10-07T00:37:51.033,5140.0,0.0,0.0,0.0,0.0,0.0,6016.0,1780.0,16012.0,-436.0,961.0,idle
2026-10-07T00:37:51.075,5190.0,0.0,0.0,0.0,0.0,0.0,5884.0,2140.0,16056.0,-425.0,1086.0,idle
2026-10-07T00:37:51.128,5240.0,0.0,0.0,0.0,0.0,0.0,5788.0,2064.0,16056.0,-563.0,962.0,idle
2026-10-07T00:37:51.182,5290.0,0.0,0.0,0.0,0.0,0.0,5880.0,2000.0,16104.0,-490.0,1030.0,idle
2026-10-07T00:37:51.226,5340.0,0.0,0.0,0.0,0.0,0.0,5748.0,2116.0,16288.0,-507.0,1056.0,idle
2026-10-07T00:37:51.283,5390.0,0.0,0.0,0.0,0.0,0.0,5712.0,2088.0,16184.0,-429.0,917.0,idle
2026-10-07T00:37:51.331,5440.0,0.0,0.0,0.0,0.0,0.0,5960.0,1940.0,15976.0,-443.0,897.0,idle
2026-10-07T00:37:51.374,5490.0,0.0,0.0,0.0,0.0,0.0,5892.0,1992.0,16252.0,-401.0,979.0,idle
2026-10-07T00:37:51.433,5540.0,0.0,0.0,0.0,0.0,0.0,5964.0,2128.0,15884.0,-484.0,948.0,idle
2026-10-07T00:37:51.480,5590.0,0.0,0.0,0.0,0.0,0.0,5792.0,2052.0,16168.0,-444.0,1167.0,idle
2026-10-07T00:37:51.528,5640.0,0.0,0.0,0.0,0.0,0.0,5780.0,2092.0,16076.0,-481.0,921.0,idle
2026-10-07T00:37:51.577,5690.0,0.0,0.0,0.0,0.0,0.0,5892.0,2152.0,16120.0,-495.0,1008.0,idle
2026-10-07T00:37:51.630,5740.0,0.0,0.0,0.0,0.0,0.0,5792.0,2132.0,15988.0,-510.0,1007.0,idle
2026-10-07T00:37:51.673,5790.0,0.0,0.0,0.0,0.0,0.0,5752.0,2072.0,16336.0,-484.0,997.0,idle
2026-10-07T00:37:51.728,5840.0,0.0,0.0,0.0,0.0,0.0,5916.0,2084.0,16136.0,-463.0,951.0,idle
2026-10-07T00:37:51.779,5890.0,0.0,0.0,0.0,0.0,0.0,5888.0,2092.0,16172.0,-425.0,973.0,idle
2026-10-07T00:37:51.833,5940.0,0.0,0.0,0.0,0.0,0.0,6056.0,2084.0,16036.0,-448.0,945.0,idle
2026-10-07T00:37:51.876,5990.0,0.0,0.0,0.0,0.0,0.0,5804.0,2176.0,16056.0,-489.0,1030.0,idle
2026-10-07T00:37:51.929,6040.0,0.0,0.0,0.0,0.0,0.0,5784.0,2120.0,16028.0,-549.0,1003.0,idle
2026-10-07T00:37:51.981,6090.0,0.0,0.0,0.0,0.0,0.0,5820.0,2044.0,16136.0,-539.0,1077.0,idle
2026-10-07T00:37:52.032,6140.0,0.0,0.0,0.0,0.0,0.0,5876.0,1956.0,16044.0,-451.0,948.0,idle
2026-10-07T00:37:52.080,6190.0,0.0,0.0,0.0,0.0,0.0,5808.0,2196.0,16040.0,-500.0,1106.0,idle
2026-10-07T00:37:52.131,6240.0,0.0,0.0,0.0,0.0,0.0,5852.0,2108.0,15960.0,-591.0,975.0,idle
2026-10-07T00:37:52.176,6290.0,0.0,0.0,0.0,0.0,0.0,5852.0,2112.0,16076.0,-601.0,1015.0,idle
2026-10-07T00:37:52.227,6340.0,0.0,0.0,0.0,0.0,0.0,5856.0,1984.0,16132.0,-516.0,1024.0,idle
2026-10-07T00:37:52.280,6390.0,0.0,0.0,0.0,0.0,0.0,5764.0,1952.0,16208.0,-555.0,1026.0,idle
2026-10-07T00:37:52.334,6440.0,0.0,0.0,0.0,0.0,0.0,5752.0,2020.0,16076.0,-491.0,968.0,idle
2026-10-07T00:37:52.377,6490.0,0.0,0.0,0.0,0.0,0.0,5908.0,2084.0,16148.0,-421.0,1001.0,idle
2026-10-07T00:37:52.430,6540.0,0.0,0.0,0.0,0.0,0.0,5868.0,2152.0,16132.0,-409.0,887.0,idle
2026-10-07T00:37:52.473,6590.0,0.0,0.0,0.0,0.0,0.0,5892.0,2100.0,16124.0,-460.0,822.0,idle
2026-10-07T00:37:52.533,6640.0,0.0,0.0,0.0,0.0,0.0,5912.0,2036.0,15996.0,-467.0,1013.0,idle
2026-10-07T00:37:52.582,6690.0,0.0,0.0,0.0,0.0,0.0,5760.0,2116.0,16128.0,-404.0,1084.0,idle
2026-10-07T00:37:52.633,6740.0,0.0,0.0,0.0,0.0,0.0,5836.0,2076.0,16012.0,-510.0,736.0,idle
2026-10-07T00:37:52.678,6790.0,0.0,0.0,0.0,0.0,0.0,5956.0,2088.0,16020.0,-448.0,932.0,idle
2026-10-07T00:37:52.728,6840.0,0.0,0.0,0.0,0.0,0.0,5936.0,2040.0,16084.0,-523.0,1060.0,idle
2026-10-07T00:37:52.782,6890.0,0.0,0.0,0.0,0.0,0.0,5896.0,2140.0,16092.0,-497.0,977.0,idle
2026-10-07T00:37:52.825,6940.0,0.0,0.0,0.0,0.0,0.0,5852.0,2092.0,16076.0,-518.0,1018.0,idle
2026-10-07T00:37:52.878,6990.0,0.0,0.0,0.0,0.0,0.0,5920.0,2040.0,16244.0,-515.0,1013.0,idle
2026-10-07T00:37:52.931,7040.0,0.0,0.0,0.0,0.0,0.0,5872.0,2040.0,16092.0,-542.0,1013.0,idle
2026-10-07T00:37:52.974,7090.0,0.0,0.0,0.0,0.0,0.0,5908.0,1960.0,16032.0,-480.0,912.0,idle
2026-10-07T00:37:53.033,7140.0,0.0,0.0,0.0,0.0,0.0,5936.0,2144.0,16224.0,-513.0,1021.0,idle
2026-10-07T00:37:53.080,7190.0,0.0,0.0,0.0,0.0,0.0,6028.0,2012.0,16068.0,-485.0,952.0,idle
2026-10-07T00:37:53.134,7240.0,0.0,0.0,0.0,0.0,0.0,5816.0,2148.0,16088.0,-454.0,1025.0,idle
2026-10-07T00:37:53.177,7290.0,0.0,0.0,0.0,0.0,0.0,5900.0,1912.0,16224.0,-532.0,883.0,idle
2026-10-07T00:37:53.230,7340.0,0.0,0.0,0.0,0.0,0.0,5936.0,2120.0,16024.0,-454.0,924.0,idle
2026-10-07T00:37:53.273,7390.0,0.0,0.0,0.0,0.0,0.0,5916.0,1928.0,16216.0,-473.0,1139.0,idle
2026-10-07T00:37:53.326,7440.0,0.0,0.0,0.0,0.0,0.0,5864.0,2028.0,16020.0,-373.0,926.0,idle
2026-10-07T00:37:53.379,7490.0,0.0,0.0,0.0,0.0,0.0,5944.0,2044.0,15992.0,-400.0,973.0,idle
2026-10-07T00:37:53.433,7540.0,0.0,0.0,0.0,0.0,0.0,6000.0,2220.0,16024.0,-438.0,985.0,idle
2026-10-07T00:37:53.486,7590.0,0.0,0.0,0.0,0.0,0.0,5992.0,1980.0,16068.0,-491.0,1048.0,idle
2026-10-07T00:37:53.531,7640.0,0.0,0.0,0.0,0.0,0.0,5884.0,2116.0,16056.0,-493.0,1053.0,idle
2026-10-07T00:37:53.582,7690.0,0.0,0.0,0.0,0.0,0.0,5896.0,2016.0,16060.0,-493.0,1042.0,idle
2026-10-07T00:37:53.635,7740.0,0.0,0.0,0.0,0.0,0.0,5864.0,2152.0,16132.0,-518.0,964.0,idle
2026-10-07T00:37:53.678,7790.0,0.0,0.0,0.0,0.0,0.0,6008.0,2084.0,16044.0,-530.0,1044.0,idle
2026-10-07T00:37:53.731,7840.0,0.0,0.0,0.0,0.0,0.0,5968.0,1952.0,16160.0,-538.0,1053.0,idle
2026-10-07T00:37:53.774,7890.0,0.0,0.0,0.0,0.0,0.0,5896.0,2124.0,16204.0,-461.0,949.0,idle
2026-10-07T00:37:53.831,7940.0,0.0,0.0,0.0,0.0,0.0,5940.0,2152.0,16212.0,-469.0,964.0,idle
2026-10-07T00:37:53.881,7990.0,0.0,0.0,0.0,0.0,0.0,6080.0,2080.0,16124.0,-536.0,946.0,idle
2026-10-07T00:37:53.925,8040.0,0.0,0.0,0.0,0.0,0.0,5988.0,2096.0,16044.0,-501.0,1144.0,idle
2026-10-07T00:37:53.979,8090.0,0.0,0.0,0.0,0.0,0.0,5772.0,2096.0,16048.0,-511.0,1209.0,idle
2026-10-07T00:37:54.030,8140.0,0.0,0.0,0.0,0.0,0.0,5892.0,2116.0,16116.0,-547.0,906.0,idle
2026-10-07T00:37:54.073,8190.0,0.0,0.0,0.0,0.0,0.0,5940.0,2132.0,16096.0,-553.0,1063.0,idle
2026-10-07T00:37:54.131,8240.0,0.0,0.0,0.0,0.0,0.0,5908.0,1956.0,16044.0,-489.0,1058.0,idle
2026-10-07T00:37:54.179,8290.0,0.0,0.0,0.0,0.0,0.0,5836.0,2088.0,16236.0,-446.0,1024.0,idle
2026-10-07T00:37:54.233,8340.0,0.0,0.0,0.0,0.0,0.0,5896.0,2084.0,16056.0,-485.0,1008.0,idle
2026-10-07T00:37:54.278,8390.0,0.0,0.0,0.0,0.0,0.0,5944.0,2148.0,16092.0,-557.0,988.0,idle
2026-10-07T00:37:54.329,8440.0,0.0,0.0,0.0,0.0,0.0,5932.0,2040.0,16132.0,-507.0,1061.0,idle
2026-10-07T00:37:54.380,8490.0,0.0,0.0,0.0,0.0,0.0,5800.0,1976.0,16128.0,-497.0,1037.0,idle
2026-10-07T00:37:54.425,8540.0,0.0,0.0,0.0,0.0,0.0,5784.0,2108.0,16160.0,-465.0,983.0,idle
2026-10-07T00:37:54.478,8590.0,0.0,0.0,0.0,0.0,0.0,5848.0,2100.0,16228.0,-475.0,948.0,idle
2026-10-07T00:37:54.531,8640.0,0.0,0.0,0.0,0.0,0.0,5856.0,2072.0,16152.0,-471.0,874.0,idle
2026-10-07T00:37:54.574,8690.0,0.0,0.0,0.0,0.0,0.0,5976.0,2152.0,16048.0,-526.0,907.0,idle
2026-10-07T00:37:54.632,8740.0,0.0,0.0,0.0,0.0,0.0,6024.0,2084.0,16104.0,-487.0,1118.0,idle
2026-10-07T00:37:54.680,8790.0,0.0,0.0,0.0,0.0,0.0,5904.0,2068.0,16208.0,-456.0,987.0,idle
2026-10-07T00:37:54.734,8840.0,0.0,0.0,0.0,0.0,0.0,5860.0,2064.0,16100.0,-515.0,1041.0,idle
2026-10-07T00:37:54.777,8890.0,0.0,0.0,0.0,0.0,0.0,5756.0,2092.0,16356.0,-533.0,1144.0,idle
2026-10-07T00:37:54.830,8940.0,0.0,0.0,0.0,0.0,0.0,5920.0,2024.0,16120.0,-391.0,876.0,idle
2026-10-07T00:37:54.873,8990.0,0.0,0.0,0.0,0.0,0.0,5872.0,2108.0,16140.0,-457.0,1053.0,idle
2026-10-07T00:37:54.929,9040.0,0.0,0.0,0.0,0.0,0.0,5880.0,2252.0,16044.0,-482.0,1018.0,idle
2026-10-07T00:37:54.979,9090.0,0.0,0.0,0.0,0.0,0.0,5876.0,2040.0,15880.0,-518.0,972.0,idle
2026-10-07T00:37:55.033,9140.0,0.0,0.0,0.0,0.0,0.0,5840.0,2040.0,16192.0,-506.0,1024.0,idle
2026-10-07T00:37:55.086,9190.0,0.0,0.0,0.0,0.0,0.0,5908.0,2128.0,16092.0,-456.0,1047.0,idle
2026-10-07T00:37:55.129,9240.0,0.0,0.0,0.0,0.0,0.0,5756.0,2164.0,16212.0,-565.0,953.0,idle
2026-10-07T00:37:55.182,9290.0,0.0,0.0,0.0,0.0,0.0,5860.0,2004.0,16076.0,-589.0,882.0,idle
2026-10-07T00:37:55.235,9340.0,0.0,0.0,0.0,0.0,0.0,5944.0,2044.0,16080.0,-427.0,1061.0,idle
2026-10-07T00:37:55.280,9390.0,0.0,0.0,0.0,0.0,0.0,5836.0,2204.0,16076.0,-428.0,1024.0,idle
2026-10-07T00:37:55.331,9440.0,0.0,0.0,0.0,0.0,0.0,5856.0,2092.0,16084.0,-466.0,906.0,idle
2026-10-07T00:37:55.374,9490.0,0.0,0.0,0.0,0.0,0.0,5972.0,2056.0,16160.0,-448.0,885.0,idle
2026-10-07T00:37:55.434,9540.0,0.0,0.0,0.0,0.0,0.0,5988.0,2076.0,16048.0,-431.0,1020.0,idle
2026-10-07T00:37:55.480,9590.0,0.0,0.0,0.0,0.0,0.0,5840.0,2136.0,16120.0,-428.0,980.0,idle
2026-10-07T00:37:55.534,9640.0,0.0,0.0,0.0,0.0,0.0,5912.0,2104.0,16164.0,-490.0,963.0,idle
2026-10-07T00:37:55.577,9690.0,0.0,0.0,0.0,0.0,0.0,5820.0,2004.0,16196.0,-454.0,968.0,idle
2026-10-07T00:37:55.630,9740.0,0.0,0.0,0.0,0.0,0.0,5892.0,2096.0,16164.0,-379.0,1079.0,idle
2026-10-07T00:37:55.684,9790.0,0.0,0.0,0.0,0.0,0.0,5784.0,2224.0,16064.0,-396.0,977.0,idle
2026-10-07T00:37:55.727,9840.0,0.0,0.0,0.0,0.0,0.0,6072.0,2072.0,15972.0,-427.0,747.0,idle
2026-10-07T00:37:55.781,9890.0,0.0,0.0,0.0,0.0,0.0,6040.0,2288.0,16124.0,-440.0,1189.0,idle
2026-10-07T00:37:55.831,9940.0,0.0,0.0,0.0,0.0,0.0,5836.0,2256.0,16212.0,-641.0,1010.0,idle
2026-10-07T00:37:55.876,9990.0,0.0,0.0,0.0,0.0,0.0,5824.0,2076.0,16100.0,-625.0,983.0,idle
2026-10-07T00:37:55.929,10040.0,0.0,0.0,0.0,0.0,0.0,5924.0,1928.0,16056.0,-519.0,1011.0,idle
2026-10-07T00:37:55.982,10090.0,0.0,0.0,0.0,0.0,0.0,5960.0,2160.0,16096.0,-421.0,1025.0,idle
2026-10-07T00:37:56.025,10140.0,0.0,0.0,0.0,0.0,0.0,5980.0,2136.0,15988.0,-511.0,942.0,idle
2026-10-07T00:37:56.078,10190.0,0.0,0.0,0.0,0.0,0.0,5884.0,2132.0,16072.0,-578.0,1016.0,idle
2026-10-07T00:37:56.131,10240.0,0.0,0.0,0.0,0.0,0.0,5868.0,2128.0,16108.0,-542.0,915.0,idle
2026-10-07T00:37:56.185,10290.0,0.0,0.0,0.0,0.0,0.0,5916.0,2016.0,16176.0,-495.0,970.0,idle
2026-10-07T00:37:56.233,10340.0,0.0,0.0,0.0,0.0,0.0,5888.0,2156.0,15972.0,-415.0,1039.0,idle
2026-10-07T00:37:56.281,10390.0,0.0,0.0,0.0,0.0,0.0,5900.0,2196.0,16056.0,-457.0,1000.0,idle
2026-10-07T00:37:56.329,10440.0,0.0,0.0,0.0,0.0,0.0,5984.0,2164.0,16196.0,-489.0,1002.0,idle
2026-10-07T00:37:56.377,10490.0,0.0,0.0,0.0,0.0,0.0,6044.0,2052.0,16024.0,-514.0,973.0,idle
2026-10-07T00:37:56.430,10540.0,0.0,0.0,0.0,0.0,0.0,5892.0,2060.0,16024.0,-389.0,1058.0,idle
2026-10-07T00:37:56.481,10590.0,0.0,0.0,0.0,0.0,0.0,5916.0,2152.0,16052.0,-491.0,970.0,idle
2026-10-07T00:37:56.526,10640.0,0.0,0.0,0.0,0.0,0.0,5920.0,2180.0,16068.0,-451.0,1043.0,idle
2026-10-07T00:37:56.579,10690.0,0.0,0.0,0.0,0.0,0.0,5848.0,2164.0,16092.0,-521.0,1011.0,idle
2026-10-07T00:37:56.622,10740.0,0.0,0.0,0.0,0.0,0.0,6020.0,2104.0,15932.0,-457.0,941.0,idle
2026-10-07T00:37:56.675,10790.0,0.0,0.0,0.0,0.0,0.0,5996.0,2208.0,16144.0,-457.0,1009.0,idle
2026-10-07T00:37:56.734,10840.0,0.0,0.0,0.0,0.0,0.0,5844.0,2228.0,15984.0,-508.0,1032.0,idle
2026-10-07T00:37:56.782,10890.0,0.0,0.0,0.0,0.0,0.0,5960.0,2144.0,16144.0,-626.0,996.0,idle
2026-10-07T00:37:56.830,10940.0,0.0,0.0,0.0,0.0,0.0,5920.0,2096.0,16136.0,-512.0,1081.0,idle
2026-10-07T00:37:56.879,10990.0,0.0,0.0,0.0,0.0,0.0,5892.0,2128.0,16148.0,-540.0,967.0,idle
2026-10-07T00:37:56.931,11040.0,0.0,0.0,0.0,0.0,0.0,5720.0,2196.0,16300.0,-569.0,925.0,idle
2026-10-07T00:37:56.974,11090.0,0.0,0.0,0.0,0.0,0.0,5928.0,2036.0,16104.0,-509.0,920.0,idle
2026-10-07T00:37:57.028,11140.0,0.0,0.0,0.0,0.0,0.0,5996.0,2136.0,16100.0,-504.0,1111.0,idle
2026-10-07T00:37:57.081,11190.0,0.0,0.0,0.0,0.0,0.0,5800.0,2160.0,16104.0,-509.0,1042.0,idle
2026-10-07T00:37:57.125,11240.0,0.0,0.0,0.0,0.0,0.0,5860.0,2040.0,16124.0,-475.0,949.0,idle
2026-10-07T00:37:57.177,11290.0,0.0,0.0,0.0,0.0,0.0,5884.0,2148.0,16088.0,-463.0,938.0,idle
2026-10-07T00:37:57.230,11340.0,0.0,0.0,0.0,0.0,0.0,5892.0,2064.0,15988.0,-478.0,1027.0,idle
2026-10-07T00:37:57.281,11390.0,0.0,0.0,0.0,0.0,0.0,5960.0,2204.0,16148.0,-459.0,1007.0,idle
2026-10-07T00:37:57.330,11440.0,0.0,0.0,0.0,0.0,0.0,5880.0,2088.0,16144.0,-533.0,1053.0,idle
2026-10-07T00:37:57.380,11490.0,0.0,0.0,0.0,0.0,0.0,5856.0,2108.0,16128.0,-435.0,1069.0,idle
2026-10-07T00:37:57.430,11540.0,0.0,0.0,0.0,0.0,0.0,5888.0,2176.0,16160.0,-460.0,948.0,idle
2026-10-07T00:37:57.480,11590.0,0.0,0.0,0.0,0.0,0.0,5972.0,2124.0,16076.0,-453.0,995.0,idle
2026-10-07T00:37:57.534,11640.0,0.0,0.0,0.0,0.0,0.0,5968.0,2140.0,16088.0,-541.0,869.0,idle
2026-10-07T00:37:57.584,11690.0,0.0,0.0,0.0,0.0,0.0,6032.0,2148.0,16040.0,-458.0,1002.0,idle
2026-10-07T00:37:57.630,11740.0,0.0,0.0,0.0,0.0,0.0,5888.0,2120.0,16132.0,-467.0,1103.0,idle
2026-10-07T00:37:57.679,11790.0,0.0,0.0,0.0,0.0,0.0,5760.0,2260.0,16104.0,-518.0,1071.0,idle
2026-10-07T00:37:57.731,11840.0,0.0,0.0,0.0,0.0,0.0,5828.0,2156.0,16132.0,-509.0,952.0,idle
2026-10-07T00:37:57.779,11890.0,0.0,0.0,0.0,0.0,0.0,6000.0,2120.0,16120.0,-471.0,926.0,idle
2026-10-07T00:37:57.830,11940.0,0.0,0.0,0.0,0.0,0.0,5908.0,2136.0,16300.0,-545.0,1106.0,idle
2026-10-07T00:37:57.881,11990.0,0.0,0.0,0.0,0.0,0.0,5884.0,2108.0,16096.0,-532.0,960.0,idle
2026-10-07T00:37:57.934,12040.0,0.0,0.0,0.0,0.0,0.0,5892.0,2080.0,16056.0,-465.0,1031.0,idle
2026-10-07T00:37:57.980,12090.0,0.0,0.0,0.0,0.0,0.0,5940.0,2092.0,16084.0,-374.0,936.0,idle
2026-10-07T00:37:58.033,12140.0,0.0,0.0,0.0,0.0,0.0,5876.0,2296.0,16064.0,-477.0,962.0,idle
2026-10-07T00:37:58.081,12190.0,0.0,0.0,0.0,0.0,0.0,5968.0,2168.0,16064.0,-488.0,979.0,idle
2026-10-07T00:37:58.133,12240.0,0.0,0.0,0.0,0.0,0.0,5824.0,2084.0,16240.0,-552.0,1065.0,idle
2026-10-07T00:37:58.180,12290.0,0.0,0.0,0.0,0.0,0.0,5860.0,2004.0,16088.0,-414.0,956.0,idle
2026-10-07T00:37:58.231,12340.0,0.0,0.0,0.0,0.0,0.0,5740.0,2252.0,16168.0,-429.0,908.0,idle
2026-10-07T00:37:58.280,12390.0,0.0,0.0,0.0,0.0,0.0,5972.0,2032.0,16120.0,-434.0,808.0,idle
2026-10-07T00:37:58.331,12440.0,0.0,0.0,0.0,0.0,0.0,6104.0,2204.0,16036.0,-453.0,837.0,idle
2026-10-07T00:37:58.382,12490.0,0.0,0.0,0.0,0.0,0.0,6020.0,2228.0,16172.0,-485.0,1084.0,idle
2026-10-07T00:37:58.431,12540.0,0.0,0.0,0.0,0.0,0.0,5980.0,2120.0,15992.0,-566.0,952.0,idle
2026-10-07T00:37:58.480,12590.0,0.0,0.0,0.0,0.0,0.0,5936.0,2040.0,16092.0,-461.0,1033.0,idle
2026-10-07T00:37:58.531,12640.0,0.0,0.0,0.0,0.0,0.0,5988.0,2208.0,16028.0,-475.0,940.0,idle
2026-10-07T00:37:58.584,12690.0,0.0,0.0,0.0,0.0,0.0,6068.0,2132.0,16048.0,-495.0,947.0,idle
2026-10-07T00:37:58.630,12740.0,0.0,0.0,0.0,0.0,0.0,6044.0,2208.0,16116.0,-513.0,1032.0,idle
2026-10-07T00:37:58.680,12790.0,0.0,0.0,0.0,0.0,0.0,5916.0,2140.0,16160.0,-572.0,1144.0,idle
2026-10-07T00:37:58.724,12840.0,0.0,0.0,0.0,0.0,0.0,5840.0,2120.0,16104.0,-575.0,965.0,idle
2026-10-07T00:37:58.777,12890.0,0.0,0.0,0.0,0.0,0.0,5920.0,1976.0,16136.0,-473.0,954.0,idle
2026-10-07T00:37:58.830,12940.0,0.0,0.0,0.0,0.0,0.0,6064.0,2164.0,16020.0,-436.0,955.0,idle
2026-10-07T00:37:58.873,12990.0,0.0,0.0,0.0,0.0,0.0,6044.0,2188.0,16104.0,-524.0,1067.0,idle
2026-10-07T00:37:58.931,13040.0,0.0,0.0,0.0,0.0,0.0,6040.0,2140.0,16088.0,-563.0,1045.0,idle
2026-10-07T00:37:58.979,13090.0,0.0,0.0,0.0,0.0,0.0,5916.0,2104.0,15948.0,-527.0,1083.0,idle
2026-10-07T00:37:59.033,13140.0,0.0,0.0,0.0,0.0,0.0,5800.0,2068.0,16080.0,-457.0,1127.0,idle
2026-10-07T00:37:59.075,13190.0,0.0,0.0,0.0,0.0,0.0,5912.0,2128.0,15952.0,-479.0,915.0,idle
2026-10-07T00:37:59.135,13240.0,0.0,0.0,0.0,0.0,0.0,5908.0,2252.0,16048.0,-477.0,959.0,idle
2026-10-07T00:37:59.176,13290.0,0.0,0.0,0.0,0.0,0.0,5904.0,2184.0,16260.0,-581.0,1071.0,idle
2026-10-07T00:37:59.225,13340.0,0.0,0.0,0.0,0.0,0.0,5896.0,2016.0,16036.0,-512.0,957.0,idle
2026-10-07T00:37:59.278,13390.0,0.0,0.0,0.0,0.0,0.0,5952.0,2096.0,16128.0,-435.0,985.0,idle
2026-10-07T00:37:59.331,13440.0,0.0,0.0,0.0,0.0,0.0,5872.0,2172.0,16056.0,-439.0,1056.0,idle
2026-10-07T00:37:59.374,13490.0,0.0,0.0,0.0,0.0,0.0,5924.0,2308.0,16080.0,-564.0,1066.0,idle
2026-10-07T00:37:59.432,13540.0,0.0,0.0,0.0,0.0,0.0,5864.0,2068.0,16156.0,-543.0,966.0,idle
2026-10-07T00:37:59.481,13590.0,0.0,0.0,0.0,0.0,0.0,5904.0,2176.0,16136.0,-536.0,1002.0,idle
2026-10-07T00:37:59.534,13640.0,0.0,0.0,0.0,0.0,0.0,5832.0,2100.0,16196.0,-480.0,1032.0,idle
2026-10-07T00:37:59.577,13690.0,0.0,0.0,0.0,0.0,0.0,5840.0,2172.0,16180.0,-498.0,962.0,idle
2026-10-07T00:37:59.630,13740.0,0.0,0.0,0.0,0.0,0.0,5888.0,2092.0,16128.0,-525.0,991.0,idle
2026-10-07T00:37:59.679,13790.0,0.0,0.0,0.0,0.0,0.0,5928.0,2072.0,16060.0,-466.0,943.0,idle
2026-10-07T00:37:59.726,13840.0,0.0,0.0,0.0,0.0,0.0,5848.0,2132.0,16044.0,-393.0,928.0,idle
2026-10-07T00:37:59.779,13890.0,0.0,0.0,0.0,0.0,0.0,5964.0,2164.0,16028.0,-490.0,959.0,idle
2026-10-07T00:37:59.827,13940.0,0.0,0.0,0.0,0.0,0.0,6028.0,1964.0,16168.0,-516.0,965.0,idle
2026-10-07T00:37:59.875,13990.0,0.0,0.0,0.0,0.0,0.0,5888.0,2244.0,16028.0,-425.0,1163.0,idle
2026-10-07T00:37:59.929,14040.0,0.0,0.0,0.0,0.0,0.0,5820.0,2256.0,16100.0,-552.0,980.0,idle
2026-10-07T00:37:59.972,14090.0,0.0,0.0,0.0,0.0,0.0,5880.0,2144.0,16124.0,-540.0,858.0,idle
2026-10-07T00:38:00.030,14140.0,0.0,0.0,0.0,0.0,0.0,6048.0,2012.0,15944.0,-437.0,1078.0,idle
2026-10-07T00:38:00.078,14190.0,0.0,0.0,0.0,0.0,0.0,5924.0,2236.0,16012.0,-435.0,922.0,idle
2026-10-07T00:38:00.126,14240.0,0.0,0.0,0.0,0.0,0.0,5952.0,2204.0,16088.0,-536.0,950.0,idle
2026-10-07T00:38:00.185,14290.0,0.0,0.0,0.0,0.0,0.0,5948.0,2100.0,16076.0,-525.0,1144.0,idle
2026-10-07T00:38:00.228,14340.0,0.0,0.0,0.0,0.0,0.0,5784.0,2212.0,16120.0,-544.0,1052.0,idle
2026-10-07T00:38:00.280,14390.0,0.0,0.0,0.0,0.0,0.0,5872.0,2140.0,16044.0,-466.0,1005.0,idle
2026-10-07T00:38:00.323,14440.0,0.0,0.0,0.0,0.0,0.0,5852.0,2232.0,16028.0,-507.0,984.0,idle
2026-10-07T00:38:00.377,14490.0,0.0,0.0,0.0,0.0,0.0,5928.0,2120.0,16044.0,-481.0,1027.0,idle
2026-10-07T00:38:00.435,14540.0,0.0,0.0,0.0,0.0,0.0,5904.0,2152.0,16176.0,-502.0,884.0,idle
2026-10-07T00:38:00.473,14590.0,0.0,0.0,0.0,0.0,0.0,5964.0,2140.0,16136.0,-439.0,909.0,idle
2026-10-07T00:38:00.532,14640.0,0.0,0.0,0.0,0.0,0.0,5992.0,2144.0,16088.0,-445.0,1033.0,idle
2026-10-07T00:38:00.580,14690.0,0.0,0.0,0.0,0.0,0.0,5968.0,2200.0,16080.0,-466.0,972.0,idle
2026-10-07T00:38:00.633,14740.0,0.0,0.0,0.0,0.0,0.0,5956.0,2200.0,16112.0,-504.0,941.0,idle
2026-10-07T00:38:00.676,14790.0,0.0,0.0,0.0,0.0,0.0,6024.0,2080.0,15996.0,-454.0,931.0,idle
2026-10-07T00:38:00.734,14840.0,0.0,0.0,0.0,0.0,0.0,5792.0,2376.0,16036.0,-419.0,986.0,idle
2026-10-07T00:38:00.777,14890.0,0.0,0.0,0.0,0.0,0.0,5856.0,2188.0,16196.0,-574.0,942.0,idle
2026-10-07T00:38:00.825,14940.0,0.0,0.0,0.0,0.0,0.0,6104.0,2028.0,16000.0,-492.0,949.0,idle
2026-10-07T00:38:00.878,14990.0,0.0,0.0,0.0,0.0,0.0,6040.0,2156.0,15932.0,-440.0,957.0,idle
2026-10-07T00:38:00.932,15040.0,0.0,0.0,0.0,0.0,0.0,6016.0,2212.0,16068.0,-515.0,1062.0,idle
2026-10-07T00:38:00.985,15090.0,0.0,0.0,0.0,0.0,0.0,5984.0,2136.0,16112.0,-527.0,1145.0,idle
2026-10-07T00:38:01.028,15140.0,0.0,0.0,0.0,0.0,0.0,5872.0,2152.0,16172.0,-503.0,1006.0,idle
2026-10-07T00:38:01.081,15190.0,0.0,0.0,0.0,0.0,0.0,5848.0,2020.0,16088.0,-536.0,930.0,idle
2026-10-07T00:38:01.129,15240.0,0.0,0.0,0.0,0.0,0.0,5952.0,2108.0,16100.0,-446.0,886.0,idle
2026-10-07T00:38:01.177,15290.0,0.0,0.0,0.0,0.0,0.0,6012.0,2172.0,16060.0,-487.0,906.0,idle
2026-10-07T00:38:01.230,15340.0,0.0,0.0,0.0,0.0,0.0,6084.0,2108.0,15988.0,-475.0,1051.0,idle
2026-10-07T00:38:01.284,15390.0,0.0,0.0,0.0,0.0,0.0,6000.0,2220.0,15936.0,-443.0,971.0,idle
2026-10-07T00:38:01.326,15440.0,0.0,0.0,0.0,0.0,0.0,6080.0,2208.0,16108.0,-481.0,1029.0,idle
2026-10-07T00:38:01.380,15490.0,0.0,0.0,0.0,0.0,0.0,5924.0,2192.0,16008.0,-474.0,1064.0,idle
2026-10-07T00:38:01.427,15540.0,0.0,0.0,0.0,0.0,0.0,5964.0,2048.0,16064.0,-441.0,823.0,idle
2026-10-07T00:38:01.485,15590.0,0.0,0.0,0.0,0.0,0.0,6008.0,2348.0,16044.0,-450.0,1062.0,idle
2026-10-07T00:38:01.529,15640.0,0.0,0.0,0.0,0.0,0.0,5924.0,2312.0,16160.0,-572.0,1052.0,idle
2026-10-07T00:38:01.582,15690.0,0.0,0.0,0.0,0.0,0.0,5908.0,2088.0,16028.0,-580.0,1001.0,idle
2026-10-07T00:38:01.627,15740.0,0.0,0.0,0.0,0.0,0.0,5968.0,2124.0,16196.0,-499.0,1040.0,idle
2026-10-07T00:38:01.678,15790.0,0.0,0.0,0.0,0.0,0.0,5980.0,2160.0,15988.0,-469.0,958.0,idle
2026-10-07T00:38:01.725,15840.0,0.0,0.0,0.0,0.0,0.0,5944.0,2196.0,16056.0,-552.0,988.0,idle
2026-10-07T00:38:01.785,15890.0,0.0,0.0,0.0,0.0,0.0,5900.0,2208.0,16012.0,-514.0,1045.0,idle
2026-10-07T00:38:01.828,15940.0,0.0,0.0,0.0,0.0,0.0,6000.0,2140.0,16132.0,-486.0,1061.0,idle
2026-10-07T00:38:01.881,15990.0,0.0,0.0,0.0,0.0,0.0,5748.0,2208.0,16148.0,-494.0,1071.0,idle
2026-10-07T00:38:01.923,16040.0,0.0,0.0,0.0,0.0,0.0,5916.0,2184.0,16032.0,-534.0,939.0,idle
2026-10-07T00:38:01.977,16090.0,0.0,0.0,0.0,0.0,0.0,5936.0,2124.0,16192.0,-488.0,1043.0,idle
2026-10-07T00:38:02.035,16140.0,0.0,0.0,0.0,0.0,0.0,5916.0,2168.0,16252.0,-530.0,983.0,idle
2026-10-07T00:38:02.084,16190.0,0.0,0.0,0.0,0.0,0.0,5908.0,2092.0,16104.0,-461.0,990.0,idle
2026-10-07T00:38:02.131,16240.0,0.0,0.0,0.0,0.0,0.0,5980.0,2200.0,16032.0,-508.0,1028.0,idle
2026-10-07T00:38:02.179,16290.0,0.0,0.0,0.0,0.0,0.0,5916.0,2176.0,16012.0,-527.0,1023.0,idle
2026-10-07T00:38:02.225,16340.0,0.0,0.0,0.0,0.0,0.0,5852.0,2160.0,16196.0,-513.0,1098.0,idle
2026-10-07T00:38:02.276,16390.0,0.0,0.0,0.0,0.0,0.0,5936.0,2172.0,15928.0,-458.0,1064.0,idle
2026-10-07T00:38:02.329,16440.0,0.0,0.0,0.0,0.0,0.0,5792.0,2264.0,16120.0,-487.0,1048.0,idle
2026-10-07T00:38:02.377,16490.0,0.0,0.0,0.0,0.0,0.0,5896.0,2224.0,16000.0,-511.0,880.0,idle
2026-10-07T00:38:02.425,16540.0,0.0,0.0,0.0,0.0,0.0,5972.0,2116.0,16064.0,-487.0,911.0,idle
2026-10-07T00:38:02.479,16590.0,0.0,0.0,0.0,0.0,0.0,6056.0,2096.0,15996.0,-394.0,971.0,idle
2026-10-07T00:38:02.534,16640.0,0.0,0.0,0.0,0.0,0.0,5920.0,2324.0,16104.0,-496.0,1035.0,idle
2026-10-07T00:38:02.579,16690.0,0.0,0.0,0.0,0.0,0.0,5888.0,2152.0,16148.0,-532.0,1094.0,idle
2026-10-07T00:38:02.630,16740.0,0.0,0.0,0.0,0.0,0.0,5868.0,2192.0,16068.0,-530.0,967.0,idle
2026-10-07T00:38:02.681,16790.0,0.0,0.0,0.0,0.0,0.0,5944.0,2200.0,16120.0,-505.0,931.0,idle
2026-10-07T00:38:02.726,16840.0,0.0,0.0,0.0,0.0,0.0,5920.0,2176.0,16196.0,-523.0,1037.0,idle
2026-10-07T00:38:02.777,16890.0,0.0,0.0,0.0,0.0,0.0,5884.0,2236.0,16052.0,-484.0,969.0,idle
2026-10-07T00:38:02.831,16940.0,0.0,0.0,0.0,0.0,0.0,6000.0,2096.0,16100.0,-499.0,908.0,idle
2026-10-07T00:38:02.883,16990.0,0.0,0.0,0.0,0.0,0.0,6024.0,2224.0,16064.0,-450.0,940.0,idle
2026-10-07T00:38:02.926,17040.0,0.0,0.0,0.0,0.0,0.0,5896.0,2188.0,15996.0,-507.0,1013.0,idle
2026-10-07T00:38:02.980,17090.0,0.0,0.0,0.0,0.0,0.0,5900.0,2184.0,16052.0,-478.0,1015.0,idle
2026-10-07T00:38:03.022,17140.0,0.0,0.0,0.0,0.0,0.0,5984.0,2188.0,16148.0,-505.0,957.0,idle
2026-10-07T00:38:03.084,17190.0,0.0,0.0,0.0,0.0,0.0,5928.0,2176.0,15980.0,-508.0,1058.0,idle
2026-10-07T00:38:03.129,17240.0,0.0,0.0,0.0,0.0,0.0,6072.0,2192.0,16116.0,-439.0,906.0,idle
2026-10-07T00:38:03.181,17290.0,0.0,0.0,0.0,0.0,0.0,5988.0,2264.0,16124.0,-505.0,960.0,idle
2026-10-07T00:38:03.229,17340.0,0.0,0.0,0.0,0.0,0.0,5876.0,2176.0,16204.0,-605.0,977.0,idle
2026-10-07T00:38:03.278,17390.0,0.0,0.0,0.0,0.0,0.0,6056.0,2064.0,15984.0,-525.0,876.0,idle
2026-10-07T00:38:03.331,17440.0,0.0,0.0,0.0,0.0,0.0,6120.0,2168.0,16072.0,-395.0,1086.0,idle
2026-10-07T00:38:03.385,17490.0,0.0,0.0,0.0,0.0,0.0,5876.0,2212.0,16060.0,-489.0,1029.0,idle
2026-10-07T00:38:03.432,17540.0,0.0,0.0,0.0,0.0,0.0,5880.0,2140.0,16000.0,-599.0,1093.0,idle
2026-10-07T00:38:03.481,17590.0,0.0,0.0,0.0,0.0,0.0,5912.0,2088.0,16104.0,-512.0,883.0,idle
2026-10-07T00:38:03.524,17640.0,0.0,0.0,0.0,0.0,0.0,6020.0,2064.0,16080.0,-442.0,976.0,idle
2026-10-07T00:38:03.577,17690.0,0.0,0.0,0.0,0.0,0.0,5944.0,2332.0,16048.0,-506.0,963.0,idle
2026-10-07T00:38:03.630,17740.0,0.0,0.0,0.0,0.0,0.0,5992.0,2052.0,16048.0,-557.0,1066.0,idle
2026-10-07T00:38:03.681,17790.0,0.0,0.0,0.0,0.0,0.0,5928.0,2104.0,16148.0,-486.0,912.0,idle
2026-10-07T00:38:03.728,17840.0,0.0,0.0,0.0,0.0,0.0,6024.0,2012.0,16084.0,-393.0,951.0,idle
2026-10-07T00:38:03.780,17890.0,0.0,0.0,0.0,0.0,0.0,6152.0,2204.0,16040.0,-339.0,905.0,idle
2026-10-07T00:38:03.833,17940.0,0.0,0.0,0.0,0.0,0.0,5948.0,2320.0,15880.0,-493.0,1284.0,idle
2026-10-07T00:38:03.876,17990.0,0.0,0.0,0.0,0.0,0.0,5804.0,2068.0,16248.0,-436.0,766.0,idle
2026-10-07T00:38:03.929,18040.0,0.0,0.0,0.0,0.0,0.0,6196.0,2080.0,16044.0,-392.0,812.0,idle
2026-10-07T00:38:03.982,18090.0,0.0,0.0,0.0,0.0,0.0,6224.0,2252.0,16008.0,-370.0,1144.0,idle
2026-10-07T00:38:04.025,18140.0,0.0,0.0,0.0,0.0,0.0,5980.0,2404.0,16032.0,-594.0,1179.0,idle
2026-10-07T00:38:04.078,18190.0,0.0,0.0,0.0,0.0,0.0,5948.0,2296.0,15828.0,-710.0,981.0,idle
2026-10-07T00:38:04.134,18240.0,0.0,0.0,0.0,0.0,0.0,5880.0,1988.0,16100.0,-616.0,1034.0,idle
2026-10-07T00:38:04.182,18290.0,0.0,0.0,0.0,0.0,0.0,5652.0,2096.0,16256.0,-426.0,1008.0,idle
2026-10-07T00:38:04.230,18340.0,0.0,0.0,0.0,0.0,0.0,5952.0,2032.0,16016.0,-363.0,683.0,idle
2026-10-07T00:38:04.281,18390.0,0.0,0.0,0.0,0.0,0.0,6420.0,2392.0,15812.0,-405.0,826.0,idle
2026-10-07T00:38:04.326,18440.0,0.0,0.0,0.0,0.0,0.0,6256.0,2380.0,15992.0,-667.0,1343.0,idle
2026-10-07T00:38:04.377,18490.0,0.0,0.0,0.0,0.0,0.0,5560.0,2132.0,16300.0,-624.0,1430.0,idle
2026-10-07T00:38:04.432,18540.0,0.0,0.0,0.0,0.0,0.0,5420.0,1944.0,16252.0,-578.0,802.0,idle
2026-10-07T00:38:04.477,18590.0,0.0,0.0,0.0,0.0,0.0,5932.0,2088.0,16088.0,-315.0,749.0,idle
2026-10-07T00:38:04.526,18640.0,0.0,0.0,0.0,0.0,0.0,6208.0,2324.0,16016.0,-375.0,913.0,idle
2026-10-07T00:38:04.580,18690.0,0.0,0.0,0.0,0.0,0.0,6020.0,2372.0,15972.0,-467.0,1120.0,idle
2026-10-07T00:38:04.633,18740.0,0.0,0.0,0.0,0.0,0.0,5896.0,2128.0,16208.0,-555.0,922.0,idle
2026-10-07T00:38:04.676,18790.0,0.0,0.0,0.0,0.0,0.0,5956.0,1976.0,16060.0,-422.0,976.0,idle
2026-10-07T00:38:04.733,18840.0,0.0,0.0,0.0,0.0,0.0,6048.0,2264.0,16060.0,-407.0,988.0,idle
2026-10-07T00:38:04.781,18890.0,0.0,0.0,0.0,0.0,0.0,6004.0,2332.0,16016.0,-439.0,1070.0,idle
2026-10-07T00:38:04.829,18940.0,0.0,0.0,0.0,0.0,0.0,5884.0,2388.0,16104.0,-688.0,1131.0,idle
2026-10-07T00:38:04.879,18990.0,0.0,0.0,0.0,0.0,0.0,5908.0,1884.0,16024.0,-595.0,1034.0,idle
2026-10-07T00:38:04.932,19040.0,0.0,0.0,0.0,0.0,0.0,5808.0,2132.0,16132.0,-363.0,1003.0,idle
2026-10-07T00:38:04.978,19090.0,0.0,0.0,0.0,0.0,0.0,6112.0,2308.0,16012.0,-362.0,866.0,idle
2026-10-07T00:38:05.029,19140.0,0.0,0.0,0.0,0.0,0.0,6052.0,2424.0,16060.0,-564.0,1053.0,idle
2026-10-07T00:38:05.081,19190.0,0.0,0.0,0.0,0.0,0.0,6012.0,2108.0,15944.0,-630.0,1084.0,idle
2026-10-07T00:38:05.125,19240.0,0.0,0.0,0.0,0.0,0.0,5888.0,2152.0,16148.0,-496.0,1119.0,idle
2026-10-07T00:38:05.185,19290.0,0.0,0.0,0.0,0.0,0.0,5912.0,2232.0,16256.0,-487.0,1038.0,idle
2026-10-07T00:38:05.231,19340.0,0.0,0.0,0.0,0.0,0.0,5828.0,2184.0,16132.0,-511.0,1005.0,idle
2026-10-07T00:38:05.281,19390.0,0.0,0.0,0.0,0.0,0.0,5976.0,2144.0,16092.0,-524.0,966.0,idle
2026-10-07T00:38:05.330,19440.0,0.0,0.0,0.0,0.0,0.0,6064.0,2148.0,16096.0,-520.0,1011.0,idle
2026-10-07T00:38:05.380,19490.0,0.0,0.0,0.0,0.0,0.0,5932.0,2084.0,16124.0,-451.0,1029.0,idle
2026-10-07T00:38:05.425,19540.0,0.0,0.0,0.0,0.0,0.0,5844.0,2164.0,16108.0,-494.0,1006.0,idle
2026-10-07T00:38:05.476,19590.0,0.0,0.0,0.0,0.0,0.0,5764.0,2240.0,16036.0,-505.0,935.0,idle
2026-10-07T00:38:05.529,19640.0,0.0,0.0,0.0,0.0,0.0,6000.0,2180.0,16020.0,-514.0,891.0,idle
2026-10-07T00:38:05.582,19690.0,0.0,0.0,0.0,0.0,0.0,5956.0,2252.0,16156.0,-456.0,951.0,idle
2026-10-07T00:38:05.626,19740.0,0.0,0.0,0.0,0.0,0.0,5804.0,2288.0,16112.0,-533.0,1014.0,idle
2026-10-07T00:38:05.678,19790.0,0.0,0.0,0.0,0.0,0.0,5996.0,2036.0,16016.0,-517.0,855.0,idle
2026-10-07T00:38:05.732,19840.0,0.0,0.0,0.0,0.0,0.0,6168.0,2008.0,15932.0,-421.0,972.0,idle
2026-10-07T00:38:05.785,19890.0,0.0,0.0,0.0,0.0,0.0,6008.0,2476.0,15988.0,-550.0,1166.0,idle
