timestamp,t1,t2,t3,t4,t5,ax,ay,az,gx,gy,gz,label
2026-10-07T00:39:05.792,1188.0,0.0,0.0,0.0,0.0,0.0,6408.0,1940.0,15868.0,-447.0,1043.0,idle
2026-10-07T00:39:05.830,1238.0,0.0,0.0,0.0,0.0,0.0,6328.0,1936.0,15812.0,-501.0,1106.0,idle
2026-10-07T00:39:05.882,1288.0,0.0,0.0,0.0,0.0,0.0,6328.0,1796.0,16040.0,-562.0,875.0,idle
2026-10-07T00:39:05.929,1338.0,0.0,0.0,0.0,0.0,0.0,6396.0,1760.0,15900.0,-488.0,983.0,idle
2026-10-07T00:39:05.979,1388.0,0.0,0.0,0.0,0.0,0.0,6348.0,1784.0,15952.0,-427.0,927.0,idle
2026-10-07T00:39:06.032,1438.0,0.0,0.0,0.0,0.0,0.0,6516.0,1896.0,15900.0,-412.0,1000.0,idle
2026-10-07T00:39:06.075,1488.0,0.0,0.0,0.0,0.0,0.0,6484.0,1872.0,15916.0,-476.0,966.0,idle
2026-10-07T00:39:06.128,1538.0,0.0,0.0,0.0,0.0,0.0,6496.0,1768.0,15868.0,-501.0,1080.0,idle
2026-10-07T00:39:06.184,1588.0,0.0,0.0,0.0,0.0,0.0,6384.0,1840.0,15976.0,-441.0,1139.0,idle
2026-10-07T00:39:06.232,1638.0,0.0,0.0,0.0,0.0,0.0,6300.0,1892.0,15980.0,-475.0,976.0,idle
2026-10-07T00:39:06.281,1688.0,0.0,0.0,0.0,0.0,0.0,6308.0,1836.0,16076.0,-561.0,922.0,idle
2026-10-07T00:39:06.331,1738.0,0.0,0.0,0.0,0.0,0.0,6392.0,1712.0,15832.0,-450.0,944.0,idle
2026-10-07T00:39:06.384,1788.0,0.0,0.0,0.0,0.0,0.0,6400.0,1848.0,15868.0,-352.0,937.0,idle
2026-10-07T00:39:06.427,1838.0,0.0,0.0,0.0,0.0,0.0,6304.0,2028.0,15908.0,-388.0,952.0,idle
2026-10-07T00:39:06.480,1888.0,0.0,0.0,0.0,0.0,0.0,6444.0,1784.0,15864.0,-500.0,920.0,idle
2026-10-07T00:39:06.533,1938.0,0.0,0.0,0.0,0.0,0.0,6480.0,1752.0,15984.0,-415.0,988.0,idle
2026-10-07T00:39:06.576,1988.0,0.0,0.0,0.0,0.0,0.0,6364.0,2060.0,15972.0,-453.0,1003.0,idle
2026-10-07T00:39:06.630,2038.0,0.0,0.0,0.0,0.0,0.0,6376.0,1904.0,15992.0,-441.0,921.0,idle
2026-10-07T00:39:06.685,2088.0,0.0,0.0,0.0,0.0,0.0,6352.0,1912.0,15992.0,-517.0,938.0,idle
2026-10-07T00:39:06.725,2138.0,0.0,0.0,0.0,0.0,0.0,6512.0,1740.0,15888.0,-401.0,913.0,idle
2026-10-07T00:39:06.781,2188.0,0.0,0.0,0.0,0.0,0.0,6508.0,1904.0,15988.0,-404.0,906.0,idle
2026-10-07T00:39:06.832,2238.0,0.0,0.0,0.0,0.0,0.0,6600.0,2040.0,15904.0,-461.0,975.0,idle
2026-10-07T00:39:06.886,2288.0,0.0,0.0,0.0,0.0,0.0,6484.0,1872.0,15916.0,-473.0,983.0,idle
2026-10-07T00:39:06.928,2338.0,0.0,0.0,0.0,0.0,0.0,6584.0,1888.0,15824.0,-511.0,873.0,idle
2026-10-07T00:39:06.981,2388.0,0.0,0.0,0.0,0.0,0.0,6536.0,1964.0,15860.0,-463.0,1037.0,idle
2026-10-07T00:39:07.029,2438.0,0.0,0.0,0.0,0.0,0.0,6324.0,2040.0,15908.0,-538.0,1066.0,idle
2026-10-07T00:39:07.078,2488.0,0.0,0.0,0.0,0.0,0.0,6524.0,1756.0,15872.0,-534.0,804.0,idle
2026-10-07T00:39:07.131,2538.0,0.0,0.0,0.0,0.0,0.0,6616.0,1880.0,16012.0,-435.0,1033.0,idle
2026-10-07T00:39:07.179,2588.0,0.0,0.0,0.0,0.0,0.0,6556.0,1912.0,15856.0,-449.0,968.0,idle
2026-10-07T00:39:07.227,2638.0,0.0,0.0,0.0,0.0,0.0,6452.0,1924.0,15836.0,-604.0,1069.0,idle
2026-10-07T00:39:07.282,2688.0,0.0,0.0,0.0,0.0,0.0,6520.0,1764.0,15864.0,-618.0,949.0,idle
2026-10-07T00:39:07.334,2738.0,0.0,0.0,0.0,0.0,0.0,6484.0,1708.0,15920.0,-446.0,1045.0,idle
2026-10-07T00:39:07.378,2788.0,0.0,0.0,0.0,0.0,0.0,6472.0,1940.0,15848.0,-424.0,992.0,idle
2026-10-07T00:39:07.430,2838.0,0.0,0.0,0.0,0.0,0.0,6384.0,1960.0,15936.0,-502.0,1032.0,idle
2026-10-07T00:39:07.483,2888.0,0.0,0.0,0.0,0.0,0.0,6516.0,1884.0,15968.0,-576.0,998.0,idle
2026-10-07T00:39:07.528,2938.0,0.0,0.0,0.0,0.0,0.0,6460.0,1764.0,15892.0,-424.0,1034.0,idle
2026-10-07T00:39:07.579,2988.0,0.0,0.0,0.0,0.0,0.0,6568.0,1868.0,15904.0,-419.0,992.0,idle
2026-10-07T00:39:07.633,3038.0,0.0,0.0,0.0,0.0,0.0,6508.0,2020.0,15780.0,-430.0,1061.0,idle
2026-10-07T00:39:07.675,3088.0,0.0,0.0,0.0,0.0,0.0,6488.0,1812.0,15800.0,-516.0,880.0,idle
2026-10-07T00:39:07.736,3138.0,0.0,0.0,0.0,0.0,0.0,6536.0,1888.0,15936.0,-443.0,1026.0,idle
2026-10-07T00:39:07.782,3188.0,0.0,0.0,0.0,0.0,0.0,6424.0,1924.0,16076.0,-509.0,1029.0,idle
2026-10-07T00:39:07.831,3238.0,0.0,0.0,0.0,0.0,0.0,6496.0,1884.0,15928.0,-429.0,973.0,idle
2026-10-07T00:39:07.879,3288.0,0.0,0.0,0.0,0.0,0.0,6540.0,1896.0,15896.0,-437.0,919.0,idle
2026-10-07T00:39:07.931,3338.0,0.0,0.0,0.0,0.0,0.0,6520.0,1964.0,15860.0,-514.0,1040.0,idle
2026-10-07T00:39:07.974,3388.0,0.0,0.0,0.0,0.0,0.0,6524.0,1972.0,15852.0,-511.0,871.0,idle
2026-10-07T00:39:08.032,3438.0,0.0,0.0,0.0,0.0,0.0,6516.0,1800.0,15864.0,-455.0,983.0,idle
2026-10-07T00:39:08.080,3488.0,0.0,0.0,0.0,0.0,0.0,6464.0,1932.0,15932.0,-432.0,994.0,idle
2026-10-07T00:39:08.127,3538.0,0.0,0.0,0.0,0.0,0.0,6504.0,1876.0,15916.0,-457.0,975.0,idle
2026-10-07T00:39:08.177,3588.0,0.0,0.0,0.0,0.0,0.0,6504.0,2008.0,15792.0,-499.0,960.0,idle
2026-10-07T00:39:08.230,3638.0,0.0,0.0,0.0,0.0,0.0,6512.0,1892.0,15832.0,-474.0,1014.0,idle
2026-10-07T00:39:08.283,3688.0,0.0,0.0,0.0,0.0,0.0,6592.0,1848.0,15924.0,-442.0,974.0,idle
2026-10-07T00:39:08.326,3738.0,0.0,0.0,0.0,0.0,0.0,6540.0,1968.0,15872.0,-495.0,1012.0,idle
2026-10-07T00:39:08.379,3788.0,0.0,0.0,0.0,0.0,0.0,6544.0,1848.0,15816.0,-525.0,1022.0,idle
2026-10-07T00:39:08.432,3838.0,0.0,0.0,0.0,0.0,0.0,6484.0,1928.0,16036.0,-563.0,1022.0,idle
2026-10-07T00:39:08.481,3888.0,0.0,0.0,0.0,0.0,0.0,6488.0,1888.0,15848.0,-514.0,1022.0,idle
2026-10-07T00:39:08.528,3938.0,0.0,0.0,0.0,0.0,0.0,6432.0,1952.0,15796.0,-532.0,1017.0,idle
2026-10-07T00:39:08.582,3988.0,0.0,0.0,0.0,0.0,0.0,6480.0,1916.0,15896.0,-569.0,1010.0,idle
2026-10-07T00:39:08.626,4038.0,0.0,0.0,0.0,0.0,0.0,6484.0,1792.0,15940.0,-466.0,986.0,idle
2026-10-07T00:39:08.678,4088.0,0.0,0.0,0.0,0.0,0.0,6480.0,1912.0,15960.0,-396.0,1026.0,idle
2026-10-07T00:39:08.731,4138.0,0.0,0.0,0.0,0.0,0.0,6472.0,1996.0,15776.0,-467.0,1028.0,idle
2026-10-07T00:39:08.779,4188.0,0.0,0.0,0.0,0.0,0.0,6452.0,1892.0,15828.0,-463.0,926.0,idle
2026-10-07T00:39:08.835,4238.0,0.0,0.0,0.0,0.0,0.0,6472.0,1864.0,15864.0,-455.0,908.0,idle
2026-10-07T00:39:08.883,4288.0,0.0,0.0,0.0,0.0,0.0,6560.0,1948.0,15844.0,-465.0,970.0,idle
2026-10-07T00:39:08.931,4338.0,0.0,0.0,0.0,0.0,0.0,6452.0,1872.0,15924.0,-479.0,973.0,idle
2026-10-07T00:39:08.979,4388.0,0.0,0.0,0.0,0.0,0.0,6532.0,1832.0,15924.0,-446.0,844.0,idle
2026-10-07T00:39:09.030,4438.0,0.0,0.0,0.0,0.0,0.0,6588.0,1948.0,15960.0,-408.0,911.0,idle
2026-10-07T00:39:09.074,4488.0,0.0,0.0,0.0,0.0,0.0,6616.0,1928.0,15820.0,-454.0,932.0,idle
2026-10-07T00:39:09.128,4538.0,0.0,0.0,0.0,0.0,0.0,6552.0,2048.0,15748.0,-445.0,903.0,idle
2026-10-07T00:39:09.179,4588.0,0.0,0.0,0.0,0.0,0.0,6548.0,1904.0,15948.0,-476.0,1068.0,idle
2026-10-07T00:39:09.233,4638.0,0.0,0.0,0.0,0.0,0.0,6660.0,1836.0,15812.0,-432.0,954.0,idle
2026-10-07T00:39:09.286,4688.0,0.0,0.0,0.0,0.0,0.0,6492.0,2132.0,15848.0,-440.0,961.0,idle
2026-10-07T00:39:09.329,4738.0,0.0,0.0,0.0,0.0,0.0,6420.0,1976.0,15948.0,-543.0,963.0,idle
2026-10-07T00:39:09.382,4788.0,0.0,0.0,0.0,0.0,0.0,6640.0,1700.0,15904.0,-483.0,854.0,idle
2026-10-07T00:39:09.430,4838.0,0.0,0.0,0.0,0.0,0.0,6572.0,1936.0,15756.0,-415.0,997.0,idle
2026-10-07T00:39:09.478,4888.0,0.0,0.0,0.0,0.0,0.0,6564.0,2000.0,15832.0,-497.0,1002.0,idle
2026-10-07T00:39:09.531,4938.0,0.0,0.0,0.0,0.0,0.0,6568.0,2008.0,15864.0,-534.0,1043.0,idle
2026-10-07T00:39:09.576,4988.0,0.0,0.0,0.0,0.0,0.0,6628.0,1788.0,15752.0,-513.0,965.0,idle
2026-10-07T00:39:09.633,5038.0,0.0,0.0,0.0,0.0,0.0,6636.0,1896.0,15916.0,-557.0,1070.0,idle
2026-10-07T00:39:09.680,5088.0,0.0,0.0,0.0,0.0,0.0,6504.0,1748.0,15864.0,-508.0,1115.0,idle
2026-10-07T00:39:09.725,5138.0,0.0,0.0,0.0,0.0,0.0,6488.0,1832.0,15936.0,-439.0,971.0,idle
2026-10-07T00:39:09.777,5188.0,0.0,0.0,0.0,0.0,0.0,6580.0,1912.0,15980.0,-397.0,866.0,idle
2026-10-07T00:39:09.830,5238.0,0.0,0.0,0.0,0.0,0.0,6696.0,1932.0,15816.0,-427.0,1058.0,idle
2026-10-07T00:39:09.885,5288.0,0.0,0.0,0.0,0.0,0.0,6580.0,2048.0,15732.0,-482.0,1099.0,idle
2026-10-07T00:39:09.936,5338.0,0.0,0.0,0.0,0.0,0.0,6516.0,1796.0,15896.0,-527.0,978.0,idle
2026-10-07T00:39:09.981,5388.0,0.0,0.0,0.0,0.0,0.0,6620.0,1920.0,15812.0,-424.0,940.0,idle
2026-10-07T00:39:10.033,5438.0,0.0,0.0,0.0,0.0,0.0,6640.0,1968.0,15872.0,-415.0,999.0,idle
2026-10-07T00:39:10.077,5488.0,0.0,0.0,0.0,0.0,0.0,6596.0,1940.0,15804.0,-456.0,920.0,idle
2026-10-07T00:39:10.128,5538.0,0.0,0.0,0.0,0.0,0.0,6528.0,2036.0,15856.0,-480.0,999.0,idle
2026-10-07T00:39:10.182,5588.0,0.0,0.0,0.0,0.0,0.0,6492.0,1868.0,15972.0,-466.0,1041.0,idle
2026-10-07T00:39:10.226,5638.0,0.0,0.0,0.0,0.0,0.0,6608.0,2012.0,15876.0,-448.0,975.0,idle
2026-10-07T00:39:10.278,5688.0,0.0,0.0,0.0,0.0,0.0,6528.0,1956.0,15956.0,-478.0,1053.0,idle
2026-10-07T00:39:10.331,5738.0,0.0,0.0,0.0,0.0,0.0,6600.0,1984.0,15788.0,-506.0,994.0,idle
2026-10-07T00:39:10.386,5788.0,0.0,0.0,0.0,0.0,0.0,6604.0,1896.0,15960.0,-519.0,986.0,idle
2026-10-07T00:39:10.434,5838.0,0.0,0.0,0.0,0.0,0.0,6564.0,2052.0,15884.0,-537.0,964.0,idle
2026-10-07T00:39:10.482,5888.0,0.0,0.0,0.0,0.0,0.0,6500.0,1920.0,15872.0,-519.0,1020.0,idle
2026-10-07T00:39:10.529,5938.0,0.0,0.0,0.0,0.0,0.0,6536.0,2004.0,15916.0,-460.0,983.0,idle
2026-10-07T00:39:10.576,5988.0,0.0,0.0,0.0,0.0,0.0,6564.0,2008.0,15772.0,-408.0,1007.0,idle
2026-10-07T00:39:10.630,6038.0,0.0,0.0,0.0,0.0,0.0,6572.0,2040.0,15780.0,-448.0,975.0,idle
2026-10-07T00:39:10.683,6088.0,0.0,0.0,0.0,0.0,0.0,6532.0,2004.0,15980.0,-502.0,1113.0,idle
2026-10-07T00:39:10.736,6138.0,0.0,0.0,0.0,0.0,0.0,6556.0,1892.0,15820.0,-492.0,950.0,idle
2026-10-07T00:39:10.782,6188.0,0.0,0.0,0.0,0.0,0.0,6540.0,2000.0,15904.0,-398.0,1002.0,idle
2026-10-07T00:39:10.833,6238.0,0.0,0.0,0.0,0.0,0.0,6476.0,1892.0,15820.0,-369.0,967.0,idle
2026-10-07T00:39:10.879,6288.0,0.0,0.0,0.0,0.0,0.0,6632.0,1956.0,15836.0,-376.0,935.0,idle
2026-10-07T00:39:10.928,6338.0,0.0,0.0,0.0,0.0,0.0,6636.0,2008.0,15748.0,-417.0,928.0,idle
2026-10-07T00:39:10.983,6388.0,0.0,0.0,0.0,0.0,0.0,6664.0,2076.0,15828.0,-413.0,1010.0,idle
2026-10-07T00:39:11.035,6438.0,0.0,0.0,0.0,0.0,0.0,6544.0,2028.0,15916.0,-467.0,1143.0,idle
2026-10-07T00:39:11.078,6488.0,0.0,0.0,0.0,0.0,0.0,6504.0,2048.0,15820.0,-525.0,932.0,idle
2026-10-07T00:39:11.131,6538.0,0.0,0.0,0.0,0.0,0.0,6628.0,1956.0,15772.0,-501.0,988.0,idle
2026-10-07T00:39:11.178,6588.0,0.0,0.0,0.0,0.0,0.0,6620.0,1952.0,15864.0,-488.0,1057.0,idle
2026-10-07T00:39:11.229,6638.0,0.0,0.0,0.0,0.0,0.0,6508.0,1964.0,15932.0,-491.0,991.0,idle
2026-10-07T00:39:11.280,6688.0,0.0,0.0,0.0,0.0,0.0,6532.0,2020.0,15848.0,-515.0,970.0,idle
2026-10-07T00:39:11.334,6738.0,0.0,0.0,0.0,0.0,0.0,6656.0,1840.0,15820.0,-488.0,922.0,idle
2026-10-07T00:39:11.378,6788.0,0.0,0.0,0.0,0.0,0.0,6520.0,2052.0,15784.0,-416.0,972.0,idle
2026-10-07T00:39:11.430,6838.0,0.0,0.0,0.0,0.0,0.0,6652.0,1988.0,15868.0,-457.0,967.0,idle
2026-10-07T00:39:11.483,6888.0,0.0,0.0,0.0,0.0,0.0,6556.0,2032.0,15724.0,-498.0,976.0,idle
2026-10-07T00:39:11.531,6938.0,0.0,0.0,0.0,0.0,0.0,6660.0,1852.0,15824.0,-453.0,910.0,idle
2026-10-07T00:39:11.579,6988.0,0.0,0.0,0.0,0.0,0.0,6544.0,2124.0,15940.0,-449.0,1011.0,idle
2026-10-07T00:39:11.632,7038.0,0.0,0.0,0.0,0.0,0.0,6412.0,2008.0,15804.0,-475.0,900.0,idle
2026-10-07T00:39:11.679,7088.0,0.0,0.0,0.0,0.0,0.0,6704.0,1932.0,15852.0,-504.0,827.0,idle
2026-10-07T00:39:11.729,7138.0,0.0,0.0,0.0,0.0,0.0,6796.0,1928.0,15864.0,-440.0,1019.0,idle
2026-10-07T00:39:11.782,7188.0,0.0,0.0,0.0,0.0,0.0,6672.0,2020.0,15764.0,-487.0,1058.0,idle
2026-10-07T00:39:11.827,7238.0,0.0,0.0,0.0,0.0,0.0,6608.0,2116.0,15800.0,-541.0,1033.0,idle
2026-10-07T00:39:11.879,7288.0,0.0,0.0,0.0,0.0,0.0,6432.0,2068.0,16036.0,-552.0,1014.0,idle
2026-10-07T00:39:11.931,7338.0,0.0,0.0,0.0,0.0,0.0,6672.0,1844.0,15760.0,-566.0,958.0,idle
2026-10-07T00:39:11.985,7388.0,0.0,0.0,0.0,0.0,0.0,6672.0,1972.0,15900.0,-439.0,1001.0,idle
2026-10-07T00:39:12.027,7438.0,0.0,0.0,0.0,0.0,0.0,6536.0,2112.0,15784.0,-556.0,979.0,idle
2026-10-07T00:39:12.082,7488.0,0.0,0.0,0.0,0.0,0.0,6576.0,1920.0,15956.0,-521.0,933.0,idle
2026-10-07T00:39:12.130,7538.0,0.0,0.0,0.0,0.0,0.0,6676.0,2012.0,15768.0,-487.0,824.0,idle
2026-10-07T00:39:12.179,7588.0,0.0,0.0,0.0,0.0,0.0,6804.0,1848.0,15816.0,-450.0,1002.0,idle
2026-10-07T00:39:12.230,7638.0,0.0,0.0,0.0,0.0,0.0,6632.0,2024.0,15880.0,-446.0,991.0,idle
2026-10-07T00:39:12.286,7688.0,0.0,0.0,0.0,0.0,0.0,6592.0,1956.0,15712.0,-474.0,937.0,idle
2026-10-07T00:39:12.326,7738.0,0.0,0.0,0.0,0.0,0.0,6708.0,1940.0,15784.0,-430.0,862.0,idle
2026-10-07T00:39:12.380,7788.0,0.0,0.0,0.0,0.0,0.0,6748.0,1984.0,15852.0,-371.0,1049.0,idle
2026-10-07T00:39:12.433,7838.0,0.0,0.0,0.0,0.0,0.0,6496.0,2152.0,15760.0,-472.0,1132.0,idle
2026-10-07T00:39:12.486,7888.0,0.0,0.0,0.0,0.0,0.0,6588.0,1924.0,15804.0,-533.0,875.0,idle
2026-10-07T00:39:12.529,7938.0,0.0,0.0,0.0,0.0,0.0,6720.0,1940.0,15840.0,-427.0,1017.0,idle
2026-10-07T00:39:12.582,7988.0,0.0,0.0,0.0,0.0,0.0,6632.0,2052.0,15768.0,-354.0,1110.0,idle
2026-10-07T00:39:12.630,8038.0,0.0,0.0,0.0,0.0,0.0,6560.0,2204.0,15808.0,-557.0,959.0,idle
2026-10-07T00:39:12.680,8088.0,0.0,0.0,0.0,0.0,0.0,6688.0,1876.0,15944.0,-517.0,1027.0,idle
2026-10-07T00:39:12.731,8138.0,0.0,0.0,0.0,0.0,0.0,6680.0,2060.0,15772.0,-457.0,1059.0,idle
2026-10-07T00:39:12.785,8188.0,0.0,0.0,0.0,0.0,0.0,6612.0,2036.0,15916.0,-484.0,1046.0,idle
2026-10-07T00:39:12.828,8238.0,0.0,0.0,0.0,0.0,0.0,6632.0,2056.0,15724.0,-539.0,1093.0,idle
2026-10-07T00:39:12.881,8288.0,0.0,0.0,0.0,0.0,0.0,6556.0,2004.0,15824.0,-615.0,1041.0,idle
2026-10-07T00:39:12.924,8338.0,0.0,0.0,0.0,0.0,0.0,6584.0,1872.0,15672.0,-404.0,1003.0,idle
2026-10-07T00:39:12.981,8388.0,0.0,0.0,0.0,0.0,0.0,6624.0,2092.0,15816.0,-449.0,1039.0,idle
2026-10-07T00:39:13.030,8438.0,0.0,0.0,0.0,0.0,0.0,6648.0,1916.0,15872.0,-509.0,992.0,idle
2026-10-07T00:39:13.084,8488.0,0.0,0.0,0.0,0.0,0.0,6452.0,2124.0,15960.0,-544.0,1032.0,idle
2026-10-07T00:39:13.131,8538.0,0.0,0.0,0.0,0.0,0.0,6696.0,1744.0,15832.0,-452.0,866.0,idle
2026-10-07T00:39:13.181,8588.0,0.0,0.0,0.0,0.0,0.0,6656.0,2176.0,15828.0,-415.0,1112.0,idle
2026-10-07T00:39:13.227,8638.0,0.0,0.0,0.0,0.0,0.0,6464.0,2000.0,15952.0,-546.0,1042.0,idle
2026-10-07T00:39:13.286,8688.0,0.0,0.0,0.0,0.0,0.0,6544.0,2036.0,15728.0,-529.0,903.0,idle
2026-10-07T00:39:13.332,8738.0,0.0,0.0,0.0,0.0,0.0,6708.0,1820.0,15716.0,-408.0,978.0,idle
2026-10-07T00:39:13.382,8788.0,0.0,0.0,0.0,0.0,0.0,6584.0,2080.0,15832.0,-399.0,1040.0,idle
2026-10-07T00:39:13.425,8838.0,0.0,0.0,0.0,0.0,0.0,6528.0,2092.0,15824.0,-477.0,938.0,idle
2026-10-07T00:39:13.481,8888.0,0.0,0.0,0.0,0.0,0.0,6584.0,1984.0,15892.0,-494.0,1000.0,idle
2026-10-07T00:39:13.536,8938.0,0.0,0.0,0.0,0.0,0.0,6648.0,1908.0,15712.0,-465.0,1040.0,idle
2026-10-07T00:39:13.581,8988.0,0.0,0.0,0.0,0.0,0.0,6484.0,2000.0,15948.0,-493.0,1101.0,idle
2026-10-07T00:39:13.632,9038.0,0.0,0.0,0.0,0.0,0.0,6460.0,2024.0,15780.0,-485.0,864.0,idle
2026-10-07T00:39:13.681,9088.0,0.0,0.0,0.0,0.0,0.0,6712.0,2080.0,15776.0,-478.0,964.0,idle
2026-10-07T00:39:13.728,9138.0,0.0,0.0,0.0,0.0,0.0,6636.0,2008.0,15880.0,-432.0,933.0,idle
2026-10-07T00:39:13.781,9188.0,0.0,0.0,0.0,0.0,0.0,6560.0,2084.0,15832.0,-453.0,988.0,idle
2026-10-07T00:39:13.830,9238.0,0.0,0.0,0.0,0.0,0.0,6680.0,2000.0,15792.0,-516.0,889.0,idle
2026-10-07T00:39:13.882,9288.0,0.0,0.0,0.0,0.0,0.0,6652.0,2008.0,15940.0,-471.0,1014.0,idle
2026-10-07T00:39:13.927,9338.0,0.0,0.0,0.0,0.0,0.0,6520.0,2012.0,15844.0,-440.0,1132.0,idle
2026-10-07T00:39:13.982,9388.0,0.0,0.0,0.0,0.0,0.0,6500.0,2116.0,15884.0,-449.0,934.0,idle
2026-10-07T00:39:14.032,9438.0,0.0,0.0,0.0,0.0,0.0,6580.0,2036.0,15828.0,-487.0,929.0,idle
2026-10-07T00:39:14.082,9488.0,0.0,0.0,0.0,0.0,0.0,6592.0,2076.0,15860.0,-495.0,931.0,idle
2026-10-07T00:39:14.129,9538.0,0.0,0.0,0.0,0.0,0.0,6692.0,1924.0,15788.0,-452.0,898.0,idle
2026-10-07T00:39:14.183,9588.0,0.0,0.0,0.0,0.0,0.0,6668.0,2104.0,15776.0,-431.0,962.0,idle
2026-10-07T00:39:14.232,9638.0,0.0,0.0,0.0,0.0,0.0,6676.0,2156.0,15808.0,-469.0,969.0,idle
2026-10-07T00:39:14.283,9688.0,0.0,0.0,0.0,0.0,0.0,6644.0,1928.0,15752.0,-497.0,1008.0,idle
2026-10-07T00:39:14.331,9738.0,0.0,0.0,0.0,0.0,0.0,6576.0,2056.0,15940.0,-516.0,949.0,idle
2026-10-07T00:39:14.384,9788.0,0.0,0.0,0.0,0.0,0.0,6720.0,2080.0,15908.0,-474.0,991.0,idle
2026-10-07T00:39:14.428,9838.0,0.0,0.0,0.0,0.0,0.0,6584.0,2128.0,15800.0,-531.0,1035.0,idle
2026-10-07T00:39:14.483,9888.0,0.0,0.0,0.0,0.0,0.0,6544.0,1920.0,15892.0,-514.0,923.0,idle
2026-10-07T00:39:14.523,9938.0,0.0,0.0,0.0,0.0,0.0,6604.0,2040.0,15876.0,-452.0,905.0,idle
2026-10-07T00:39:14.583,9988.0,0.0,0.0,0.0,0.0,0.0,6648.0,1980.0,15740.0,-403.0,926.0,idle
2026-10-07T00:39:14.630,10038.0,0.0,0.0,0.0,0.0,0.0,6692.0,1952.0,15756.0,-369.0,936.0,idle
2026-10-07T00:39:14.683,10088.0,0.0,0.0,0.0,0.0,0.0,6720.0,2064.0,15704.0,-462.0,970.0,idle
2026-10-07T00:39:14.731,10138.0,0.0,0.0,0.0,0.0,0.0,6784.0,2068.0,15748.0,-439.0,1042.0,idle
2026-10-07T00:39:14.780,10188.0,0.0,0.0,0.0,0.0,0.0,6592.0,2048.0,15860.0,-546.0,965.0,idle
2026-10-07T00:39:14.833,10238.0,0.0,0.0,0.0,0.0,0.0,6604.0,1936.0,15924.0,-442.0,1084.0,idle
2026-10-07T00:39:14.875,10288.0,0.0,0.0,0.0,0.0,0.0,6560.0,2128.0,15904.0,-453.0,983.0,idle
2026-10-07T00:39:14.930,10338.0,0.0,0.0,0.0,0.0,0.0,6788.0,2028.0,15768.0,-452.0,841.0,idle
2026-10-07T00:39:14.984,10388.0,0.0,0.0,0.0,0.0,0.0,6820.0,2076.0,15804.0,-413.0,1045.0,idle
2026-10-07T00:39:15.030,10438.0,0.0,0.0,0.0,0.0,0.0,6596.0,2116.0,15808.0,-468.0,1024.0,idle
2026-10-07T00:39:15.084,10488.0,0.0,0.0,0.0,0.0,0.0,6744.0,1976.0,15752.0,-456.0,1038.0,idle
2026-10-07T00:39:15.131,10538.0,0.0,0.0,0.0,0.0,0.0,6704.0,2004.0,15820.0,-530.0,1093.0,idle
2026-10-07T00:39:15.185,10588.0,0.0,0.0,0.0,0.0,0.0,6668.0,1996.0,15852.0,-417.0,1098.0,idle
2026-10-07T00:39:15.232,10638.0,0.0,0.0,0.0,0.0,0.0,6612.0,2184.0,15820.0,-519.0,991.0,idle
2026-10-07T00:39:15.285,10688.0,0.0,0.0,0.0,0.0,0.0,6648.0,2040.0,15680.0,-551.0,1039.0,idle
2026-10-07T00:39:15.328,10738.0,0.0,0.0,0.0,0.0,0.0,6580.0,2028.0,15884.0,-484.0,1000.0,idle
2026-10-07T00:39:15.376,10788.0,0.0,0.0,0.0,0.0,0.0,6596.0,1976.0,15920.0,-440.0,995.0,idle
2026-10-07T00:39:15.430,10838.0,0.0,0.0,0.0,0.0,0.0,6680.0,2116.0,15660.0,-409.0,900.0,idle
2026-10-07T00:39:15.485,10888.0,0.0,0.0,0.0,0.0,0.0,6744.0,2072.0,15832.0,-441.0,1045.0,idle
2026-10-07T00:39:15.526,10938.0,0.0,0.0,0.0,0.0,0.0,6688.0,1896.0,15768.0,-473.0,1001.0,idle
2026-10-07T00:39:15.585,10988.0,0.0,0.0,0.0,0.0,0.0,6556.0,2204.0,15920.0,-489.0,1003.0,idle
2026-10-07T00:39:15.632,11038.0,0.0,0.0,0.0,0.0,0.0,6620.0,2048.0,15724.0,-524.0,955.0,idle
2026-10-07T00:39:15.686,11088.0,0.0,0.0,0.0,0.0,0.0,6672.0,1936.0,15808.0,-456.0,1000.0,idle
2026-10-07T00:39:15.729,11138.0,0.0,0.0,0.0,0.0,0.0,6688.0,2116.0,15876.0,-398.0,993.0,idle
2026-10-07T00:39:15.782,11188.0,0.0,0.0,0.0,0.0,0.0,6552.0,2140.0,15768.0,-513.0,995.0,idle
2026-10-07T00:39:15.830,11238.0,0.0,0.0,0.0,0.0,0.0,6736.0,1996.0,15672.0,-535.0,888.0,idle
2026-10-07T00:39:15.886,11288.0,0.0,0.0,0.0,0.0,0.0,6720.0,2036.0,15796.0,-434.0,1130.0,idle
2026-10-07T00:39:15.931,11338.0,0.0,0.0,0.0,0.0,0.0,6584.0,2076.0,15864.0,-562.0,1009.0,idle
2026-10-07T00:39:15.983,11388.0,0.0,0.0,0.0,0.0,0.0,6636.0,2024.0,15872.0,-505.0,1053.0,idle
2026-10-07T00:39:16.027,11438.0,0.0,0.0,0.0,0.0,0.0,6604.0,1972.0,15856.0,-546.0,1046.0,idle
2026-10-07T00:39:16.081,11488.0,0.0,0.0,0.0,0.0,0.0,6552.0,2024.0,15844.0,-444.0,1055.0,idle
2026-10-07T00:39:16.124,11538.0,0.0,0.0,0.0,0.0,0.0,6536.0,2116.0,15728.0,-443.0,878.0,idle
2026-10-07T00:39:16.177,11588.0,0.0,0.0,0.0,0.0,0.0,6728.0,1952.0,15756.0,-474.0,943.0,idle
2026-10-07T00:39:16.230,11638.0,0.0,0.0,0.0,0.0,0.0,6628.0,2044.0,15652.0,-409.0,1065.0,idle
2026-10-07T00:39:16.283,11688.0,0.0,0.0,0.0,0.0,0.0,6516.0,2004.0,15848.0,-539.0,1028.0,idle
2026-10-07T00:39:16.331,11738.0,0.0,0.0,0.0,0.0,0.0,6600.0,2096.0,15704.0,-482.0,952.0,idle
2026-10-07T00:39:16.379,11788.0,0.0,0.0,0.0,0.0,0.0,6676.0,2016.0,15904.0,-481.0,939.0,idle
2026-10-07T00:39:16.427,11838.0,0.0,0.0,0.0,0.0,0.0,6528.0,2092.0,15988.0,-482.0,937.0,idle
2026-10-07T00:39:16.476,11888.0,0.0,0.0,0.0,0.0,0.0,6592.0,1928.0,15756.0,-494.0,882.0,idle
2026-10-07T00:39:16.530,11938.0,0.0,0.0,0.0,0.0,0.0,6844.0,2048.0,15680.0,-426.0,925.0,idle
2026-10-07T00:39:16.583,11988.0,0.0,0.0,0.0,0.0,0.0,6700.0,2168.0,15876.0,-479.0,1065.0,idle
2026-10-07T00:39:16.635,12038.0,0.0,0.0,0.0,0.0,0.0,6464.0,1992.0,15824.0,-506.0,1024.0,idle
2026-10-07T00:39:16.682,12088.0,0.0,0.0,0.0,0.0,0.0,6640.0,2084.0,15832.0,-435.0,900.0,idle
2026-10-07T00:39:16.731,12138.0,0.0,0.0,0.0,0.0,0.0,6752.0,1984.0,15816.0,-508.0,1018.0,idle
2026-10-07T00:39:16.774,12188.0,0.0,0.0,0.0,0.0,0.0,6580.0,2092.0,15796.0,-504.0,969.0,idle
2026-10-07T00:39:16.828,12238.0,0.0,0.0,0.0,0.0,0.0,6652.0,2004.0,15972.0,-547.0,916.0,idle
2026-10-07T00:39:16.881,12288.0,0.0,0.0,0.0,0.0,0.0,6684.0,2084.0,15912.0,-554.0,886.0,idle
2026-10-07T00:39:16.931,12338.0,0.0,0.0,0.0,0.0,0.0,6712.0,1876.0,15780.0,-436.0,957.0,idle
2026-10-07T00:39:16.981,12388.0,0.0,0.0,0.0,0.0,0.0,6672.0,2116.0,15752.0,-432.0,932.0,idle
2026-10-07T00:39:17.031,12438.0,0.0,0.0,0.0,0.0,0.0,6816.0,2004.0,15844.0,-520.0,1033.0,idle
2026-10-07T00:39:17.081,12488.0,0.0,0.0,0.0,0.0,0.0,6556.0,2132.0,15788.0,-545.0,1113.0,idle
2026-10-07T00:39:17.128,12538.0,0.0,0.0,0.0,0.0,0.0,6712.0,1932.0,15736.0,-464.0,872.0,idle
2026-10-07T00:39:17.182,12588.0,0.0,0.0,0.0,0.0,0.0,6676.0,2288.0,15856.0,-470.0,1039.0,idle
2026-10-07T00:39:17.231,12638.0,0.0,0.0,0.0,0.0,0.0,6592.0,2120.0,15908.0,-593.0,969.0,idle
2026-10-07T00:39:17.281,12688.0,0.0,0.0,0.0,0.0,0.0,6704.0,1952.0,15796.0,-476.0,871.0,idle
2026-10-07T00:39:17.332,12738.0,0.0,0.0,0.0,0.0,0.0,6828.0,1908.0,15816.0,-364.0,944.0,idle
2026-10-07T00:39:17.383,12788.0,0.0,0.0,0.0,0.0,0.0,6832.0,2236.0,15836.0,-399.0,974.0,idle
2026-10-07T00:39:17.431,12838.0,0.0,0.0,0.0,0.0,0.0,6804.0,2020.0,15692.0,-530.0,1014.0,idle
2026-10-07T00:39:17.480,12888.0,0.0,0.0,0.0,0.0,0.0,6724.0,2120.0,15784.0,-440.0,1006.0,idle
2026-10-07T00:39:17.531,12938.0,0.0,0.0,0.0,0.0,0.0,6692.0,1948.0,15804.0,-438.0,984.0,idle
2026-10-07T00:39:17.581,12988.0,0.0,0.0,0.0,0.0,0.0,6628.0,2192.0,15808.0,-436.0,1036.0,idle
2026-10-07T00:39:17.631,13038.0,0.0,0.0,0.0,0.0,0.0,6632.0,2060.0,15900.0,-536.0,890.0,idle
2026-10-07T00:39:17.680,13088.0,0.0,0.0,0.0,0.0,0.0,6756.0,2044.0,15808.0,-450.0,1028.0,idle
2026-10-07T00:39:17.732,13138.0,0.0,0.0,0.0,0.0,0.0,6784.0,2112.0,15668.0,-474.0,1039.0,idle
2026-10-07T00:39:17.776,13188.0,0.0,0.0,0.0,0.0,0.0,6820.0,2012.0,15660.0,-445.0,1069.0,idle
2026-10-07T00:39:17.830,13238.0,0.0,0.0,0.0,0.0,0.0,6660.0,2036.0,15884.0,-521.0,1003.0,idle
2026-10-07T00:39:17.874,13288.0,0.0,0.0,0.0,0.0,0.0,6740.0,1996.0,15732.0,-441.0,1117.0,idle
2026-10-07T00:39:17.931,13338.0,0.0,0.0,0.0,0.0,0.0,6584.0,2172.0,15888.0,-452.0,1214.0,idle
2026-10-07T00:39:17.979,13388.0,0.0,0.0,0.0,0.0,0.0,6628.0,2056.0,15748.0,-524.0,979.0,idle
2026-10-07T00:39:18.027,13438.0,0.0,0.0,0.0,0.0,0.0,6644.0,2076.0,15844.0,-461.0,986.0,idle
2026-10-07T00:39:18.075,13488.0,0.0,0.0,0.0,0.0,0.0,6692.0,1984.0,15704.0,-432.0,1009.0,idle
2026-10-07T00:39:18.128,13538.0,0.0,0.0,0.0,0.0,0.0,6604.0,2156.0,15836.0,-458.0,1007.0,idle
2026-10-07T00:39:18.182,13588.0,0.0,0.0,0.0,0.0,0.0,6680.0,2004.0,15752.0,-510.0,972.0,idle
2026-10-07T00:39:18.224,13638.0,0.0,0.0,0.0,0.0,0.0,6648.0,2004.0,15892.0,-473.0,1008.0,idle
2026-10-07T00:39:18.278,13688.0,0.0,0.0,0.0,0.0,0.0,6576.0,2044.0,15792.0,-497.0,1054.0,idle
2026-10-07T00:39:18.334,13738.0,0.0,0.0,0.0,0.0,0.0,6676.0,2072.0,15620.0,-478.0,934.0,idle
2026-10-07T00:39:18.381,13788.0,0.0,0.0,0.0,0.0,0.0,6680.0,1956.0,15872.0,-502.0,981.0,idle
2026-10-07T00:39:18.430,13838.0,0.0,0.0,0.0,0.0,0.0,6652.0,2068.0,15892.0,-456.0,982.0,idle
2026-10-07T00:39:18.480,13888.0,0.0,0.0,0.0,0.0,0.0,6628.0,1976.0,15748.0,-414.0,931.0,idle
2026-10-07T00:39:18.534,13938.0,0.0,0.0,0.0,0.0,0.0,6664.0,2040.0,15676.0,-385.0,847.0,idle
2026-10-07T00:39:18.577,13988.0,0.0,0.0,0.0,0.0,0.0,6632.0,2188.0,15780.0,-403.0,947.0,idle
2026-10-07T00:39:18.635,14038.0,0.0,0.0,0.0,0.0,0.0,6792.0,2004.0,15544.0,-444.0,933.0,idle
2026-10-07T00:39:18.683,14088.0,0.0,0.0,0.0,0.0,0.0,6580.0,2212.0,15880.0,-399.0,985.0,idle
2026-10-07T00:39:18.726,14138.0,0.0,0.0,0.0,0.0,0.0,6680.0,2048.0,15728.0,-474.0,830.0,idle
2026-10-07T00:39:18.779,14188.0,0.0,0.0,0.0,0.0,0.0,6816.0,2136.0,15732.0,-457.0,983.0,idle
2026-10-07T00:39:18.832,14238.0,0.0,0.0,0.0,0.0,0.0,6944.0,2144.0,15736.0,-473.0,1003.0,idle
2026-10-07T00:39:18.886,14288.0,0.0,0.0,0.0,0.0,0.0,6776.0,2292.0,15808.0,-516.0,1068.0,idle
2026-10-07T00:39:18.929,14338.0,0.0,0.0,0.0,0.0,0.0,6668.0,2092.0,15700.0,-647.0,1029.0,idle
2026-10-07T00:39:18.982,14388.0,0.0,0.0,0.0,0.0,0.0,6612.0,1964.0,15944.0,-483.0,991.0,idle
2026-10-07T00:39:19.030,14438.0,0.0,0.0,0.0,0.0,0.0,6644.0,2200.0,15832.0,-404.0,956.0,idle
2026-10-07T00:39:19.078,14488.0,0.0,0.0,0.0,0.0,0.0,6768.0,2116.0,15756.0,-524.0,986.0,idle
2026-10-07T00:39:19.131,14538.0,0.0,0.0,0.0,0.0,0.0,6748.0,1984.0,15676.0,-619.0,980.0,idle
2026-10-07T00:39:19.180,14588.0,0.0,0.0,0.0,0.0,0.0,6680.0,2036.0,15816.0,-487.0,1059.0,idle
2026-10-07T00:39:19.228,14638.0,0.0,0.0,0.0,0.0,0.0,6552.0,2060.0,15844.0,-493.0,955.0,idle
2026-10-07T00:39:19.281,14688.0,0.0,0.0,0.0,0.0,0.0,6744.0,2152.0,15740.0,-417.0,964.0,idle
2026-10-07T00:39:19.334,14738.0,0.0,0.0,0.0,0.0,0.0,6728.0,2088.0,15696.0,-467.0,929.0,idle
2026-10-07T00:39:19.377,14788.0,0.0,0.0,0.0,0.0,0.0,6692.0,2040.0,15888.0,-459.0,1045.0,idle
2026-10-07T00:39:19.435,14838.0,0.0,0.0,0.0,0.0,0.0,6748.0,1956.0,15696.0,-455.0,910.0,idle
2026-10-07T00:39:19.473,14888.0,0.0,0.0,0.0,0.0,0.0,6688.0,2304.0,15776.0,-370.0,1010.0,idle
2026-10-07T00:39:19.531,14938.0,0.0,0.0,0.0,0.0,0.0,6672.0,2016.0,15884.0,-551.0,933.0,idle
2026-10-07T00:39:19.580,14988.0,0.0,0.0,0.0,0.0,0.0,6772.0,1980.0,15752.0,-470.0,986.0,idle
2026-10-07T00:39:19.627,15038.0,0.0,0.0,0.0,0.0,0.0,6760.0,2120.0,15732.0,-369.0,919.0,idle
2026-10-07T00:39:19.675,15088.0,0.0,0.0,0.0,0.0,0.0,6684.0,2132.0,15728.0,-452.0,932.0,idle
2026-10-07T00:39:19.729,15138.0,0.0,0.0,0.0,0.0,0.0,6744.0,2116.0,15748.0,-445.0,926.0,idle
2026-10-07T00:39:19.782,15188.0,0.0,0.0,0.0,0.0,0.0,6784.0,2024.0,15728.0,-441.0,1017.0,idle
2026-10-07T00:39:19.825,15238.0,0.0,0.0,0.0,0.0,0.0,6800.0,2148.0,15804.0,-514.0,1007.0,idle
2026-10-07T00:39:19.878,15288.0,0.0,0.0,0.0,0.0,0.0,6672.0,2172.0,15728.0,-532.0,1022.0,idle
2026-10-07T00:39:19.933,15338.0,0.0,0.0,0.0,0.0,0.0,6588.0,2104.0,15832.0,-571.0,944.0,idle
2026-10-07T00:39:19.985,15388.0,0.0,0.0,0.0,0.0,0.0,6764.0,1960.0,15740.0,-450.0,975.0,idle
2026-10-07T00:39:20.032,15438.0,0.0,0.0,0.0,0.0,0.0,6736.0,2072.0,15668.0,-365.0,911.0,idle
2026-10-07T00:39:20.081,15488.0,0.0,0.0,0.0,0.0,0.0,6812.0,2208.0,15668.0,-440.0,956.0,idle
2026-10-07T00:39:20.129,15538.0,0.0,0.0,0.0,0.0,0.0,6856.0,2120.0,15780.0,-491.0,977.0,idle
2026-10-07T00:39:20.177,15588.0,0.0,0.0,0.0,0.0,0.0,6828.0,2148.0,15688.0,-463.0,1101.0,idle
2026-10-07T00:39:20.231,15638.0,0.0,0.0,0.0,0.0,0.0,6668.0,2100.0,15876.0,-496.0,1138.0,idle
2026-10-07T00:39:20.284,15688.0,0.0,0.0,0.0,0.0,0.0,6696.0,2088.0,15736.0,-574.0,943.0,idle
2026-10-07T00:39:20.326,15738.0,0.0,0.0,0.0,0.0,0.0,6820.0,1976.0,15692.0,-475.0,1054.0,idle
2026-10-07T00:39:20.380,15788.0,0.0,0.0,0.0,0.0,0.0,6684.0,2156.0,15752.0,-461.0,1112.0,idle
2026-10-07T00:39:20.422,15838.0,0.0,0.0,0.0,0.0,0.0,6688.0,2100.0,15804.0,-493.0,974.0,idle
2026-10-07T00:39:20.476,15888.0,0.0,0.0,0.0,0.0,0.0,6724.0,2160.0,15764.0,-485.0,1089.0,idle
2026-10-07T00:39:20.529,15938.0,0.0,0.0,0.0,0.0,0.0,6744.0,2008.0,15796.0,-498.0,1039.0,idle
2026-10-07T00:39:20.585,15988.0,0.0,0.0,0.0,0.0,0.0,6584.0,2196.0,15776.0,-476.0,1086.0,idle
2026-10-07T00:39:20.635,16038.0,0.0,0.0,0.0,0.0,0.0,6760.0,2072.0,15724.0,-575.0,1018.0,idle
2026-10-07T00:39:20.679,16088.0,0.0,0.0,0.0,0.0,0.0,6620.0,2068.0,15748.0,-547.0,989.0,idle
2026-10-07T00:39:20.731,16138.0,0.0,0.0,0.0,0.0,0.0,6612.0,2000.0,15768.0,-489.0,925.0,idle
2026-10-07T00:39:20.778,16188.0,0.0,0.0,0.0,0.0,0.0,6744.0,2096.0,15660.0,-439.0,894.0,idle
2026-10-07T00:39:20.827,16238.0,0.0,0.0,0.0,0.0,0.0,6832.0,2020.0,15716.0,-479.0,986.0,idle
2026-10-07T00:39:20.881,16288.0,0.0,0.0,0.0,0.0,0.0,6760.0,2152.0,15772.0,-550.0,927.0,idle
2026-10-07T00:39:20.924,16338.0,0.0,0.0,0.0,0.0,0.0,6808.0,1992.0,15740.0,-507.0,1148.0,idle
2026-10-07T00:39:20.977,16388.0,0.0,0.0,0.0,0.0,0.0,6628.0,2228.0,15832.0,-463.0,1139.0,idle
2026-10-07T00:39:21.030,16438.0,0.0,0.0,0.0,0.0,0.0,6564.0,1972.0,15728.0,-507.0,959.0,idle
2026-10-07T00:39:21.073,16488.0,0.0,0.0,0.0,0.0,0.0,6708.0,2036.0,15752.0,-415.0,937.0,idle
2026-10-07T00:39:21.130,16538.0,0.0,0.0,0.0,0.0,0.0,6768.0,2192.0,15844.0,-381.0,955.0,idle
2026-10-07T00:39:21.180,16588.0,0.0,0.0,0.0,0.0,0.0,6664.0,2120.0,15764.0,-468.0,1017.0,idle
2026-10-07T00:39:21.233,16638.0,0.0,0.0,0.0,0.0,0.0,6556.0,2156.0,15856.0,-516.0,983.0,idle
2026-10-07T00:39:21.282,16688.0,0.0,0.0,0.0,0.0,0.0,6812.0,2044.0,15684.0,-422.0,938.0,idle
2026-10-07T00:39:21.332,16738.0,0.0,0.0,0.0,0.0,0.0,6764.0,2180.0,15836.0,-435.0,979.0,idle
2026-10-07T00:39:21.382,16788.0,0.0,0.0,0.0,0.0,0.0,6680.0,2020.0,15632.0,-519.0,1025.0,idle
2026-10-07T00:39:21.425,16838.0,0.0,0.0,0.0,0.0,0.0,6548.0,2244.0,15880.0,-538.0,933.0,idle
2026-10-07T00:39:21.482,16888.0,0.0,0.0,0.0,0.0,0.0,6792.0,1936.0,15656.0,-460.0,944.0,idle
2026-10-07T00:39:21.531,16938.0,0.0,0.0,0.0,0.0,0.0,6788.0,2096.0,15828.0,-392.0,996.0,idle
2026-10-07T00:39:21.574,16988.0,0.0,0.0,0.0,0.0,0.0,6652.0,2124.0,15756.0,-500.0,1025.0,idle
2026-10-07T00:39:21.630,17038.0,0.0,0.0,0.0,0.0,0.0,6680.0,2152.0,15664.0,-557.0,976.0,idle
2026-10-07T00:39:21.681,17088.0,0.0,0.0,0.0,0.0,0.0,6852.0,1916.0,15788.0,-523.0,853.0,idle
2026-10-07T00:39:21.726,17138.0,0.0,0.0,0.0,0.0,0.0,6852.0,2136.0,15700.0,-406.0,1140.0,idle
2026-10-07T00:39:21.777,17188.0,0.0,0.0,0.0,0.0,0.0,6496.0,2228.0,15684.0,-548.0,1061.0,idle
2026-10-07T00:39:21.830,17238.0,0.0,0.0,0.0,0.0,0.0,6628.0,2032.0,15700.0,-565.0,822.0,idle
2026-10-07T00:39:21.884,17288.0,0.0,0.0,0.0,0.0,0.0,6912.0,1920.0,15856.0,-425.0,963.0,idle
2026-10-07T00:39:21.926,17338.0,0.0,0.0,0.0,0.0,0.0,6652.0,2064.0,15796.0,-412.0,1010.0,idle
2026-10-07T00:39:21.980,17388.0,0.0,0.0,0.0,0.0,0.0,6616.0,2316.0,15764.0,-409.0,944.0,idle
2026-10-07T00:39:22.022,17438.0,0.0,0.0,0.0,0.0,0.0,6720.0,1964.0,15804.0,-390.0,972.0,idle
2026-10-07T00:39:22.079,17488.0,0.0,0.0,0.0,0.0,0.0,6796.0,2316.0,15772.0,-450.0,966.0,idle
2026-10-07T00:39:22.132,17538.0,0.0,0.0,0.0,0.0,0.0,6828.0,2080.0,15720.0,-550.0,1031.0,idle
2026-10-07T00:39:22.182,17588.0,0.0,0.0,0.0,0.0,0.0,6684.0,2212.0,15728.0,-492.0,967.0,idle
2026-10-07T00:39:22.225,17638.0,0.0,0.0,0.0,0.0,0.0,6748.0,1964.0,15776.0,-544.0,947.0,idle
2026-10-07T00:39:22.278,17688.0,0.0,0.0,0.0,0.0,0.0,6864.0,2076.0,15688.0,-372.0,952.0,idle
2026-10-07T00:39:22.331,17738.0,0.0,0.0,0.0,0.0,0.0,6912.0,2228.0,15604.0,-420.0,1022.0,idle
2026-10-07T00:39:22.378,17788.0,0.0,0.0,0.0,0.0,0.0,6848.0,2100.0,15760.0,-564.0,1157.0,idle
2026-10-07T00:39:22.427,17838.0,0.0,0.0,0.0,0.0,0.0,6772.0,2080.0,15584.0,-500.0,1153.0,idle
2026-10-07T00:39:22.481,17888.0,0.0,0.0,0.0,0.0,0.0,6636.0,2100.0,15808.0,-509.0,1125.0,idle
2026-10-07T00:39:22.524,17938.0,0.0,0.0,0.0,0.0,0.0,6704.0,2080.0,15752.0,-524.0,1046.0,idle
2026-10-07T00:39:22.577,17988.0,0.0,0.0,0.0,0.0,0.0,6760.0,2028.0,15744.0,-522.0,1085.0,idle
2026-10-07T00:39:22.630,18038.0,0.0,0.0,0.0,0.0,0.0,6604.0,2108.0,15680.0,-532.0,1067.0,idle
2026-10-07T00:39:22.684,18088.0,0.0,0.0,0.0,0.0,0.0,6664.0,2104.0,15760.0,-505.0,1049.0,idle
2026-10-07T00:39:22.728,18138.0,0.0,0.0,0.0,0.0,0.0,6772.0,2160.0,15716.0,-569.0,1057.0,idle
2026-10-07T00:39:22.781,18188.0,0.0,0.0,0.0,0.0,0.0,6760.0,2016.0,15840.0,-526.0,1044.0,idle
2026-10-07T00:39:22.826,18238.0,0.0,0.0,0.0,0.0,0.0,6708.0,2144.0,15788.0,-465.0,1007.0,idle
2026-10-07T00:39:22.882,18288.0,0.0,0.0,0.0,0.0,0.0,6760.0,2176.0,15756.0,-533.0,974.0,idle
2026-10-07T00:39:22.929,18338.0,0.0,0.0,0.0,0.0,0.0,6796.0,2060.0,15792.0,-466.0,1068.0,idle
2026-10-07T00:39:22.982,18388.0,0.0,0.0,0.0,0.0,0.0,6620.0,2064.0,15728.0,-452.0,1062.0,idle
2026-10-07T00:39:23.025,18438.0,0.0,0.0,0.0,0.0,0.0,6676.0,2084.0,15704.0,-461.0,898.0,idle
2026-10-07T00:39:23.079,18488.0,0.0,0.0,0.0,0.0,0.0,6772.0,2184.0,15612.0,-412.0,935.0,idle
2026-10-07T00:39:23.132,18538.0,0.0,0.0,0.0,0.0,0.0,6872.0,1948.0,15840.0,-478.0,991.0,idle
2026-10-07T00:39:23.174,18588.0,0.0,0.0,0.0,0.0,0.0,6676.0,2176.0,15700.0,-481.0,1096.0,idle
2026-10-07T00:39:23.233,18638.0,0.0,0.0,0.0,0.0,0.0,6628.0,2112.0,15856.0,-468.0,988.0,idle
2026-10-07T00:39:23.281,18688.0,0.0,0.0,0.0,0.0,0.0,6840.0,2108.0,15708.0,-464.0,857.0,idle
2026-10-07T00:39:23.329,18738.0,0.0,0.0,0.0,0.0,0.0,6840.0,2192.0,15784.0,-430.0,942.0,idle
2026-10-07T00:39:23.377,18788.0,0.0,0.0,0.0,0.0,0.0,6820.0,2092.0,15748.0,-463.0,976.0,idle
2026-10-07T00:39:23.430,18838.0,0.0,0.0,0.0,0.0,0.0,6688.0,2200.0,15696.0,-514.0,971.0,idle
2026-10-07T00:39:23.477,18888.0,0.0,0.0,0.0,0.0,0.0,6764.0,2064.0,15708.0,-500.0,955.0,idle
2026-10-07T00:39:23.526,18938.0,0.0,0.0,0.0,0.0,0.0,6752.0,2156.0,15708.0,-468.0,968.0,idle
2026-10-07T00:39:23.580,18988.0,0.0,0.0,0.0,0.0,0.0,6748.0,2144.0,15728.0,-507.0,945.0,idle
2026-10-07T00:39:23.623,19038.0,0.0,0.0,0.0,0.0,0.0,6808.0,2064.0,15816.0,-482.0,943.0,idle
2026-10-07T00:39:23.676,19088.0,0.0,0.0,0.0,0.0,0.0,6728.0,2160.0,15792.0,-497.0,1032.0,idle
2026-10-07T00:39:23.732,19138.0,0.0,0.0,0.0,0.0,0.0,6696.0,2112.0,15860.0,-417.0,902.0,idle
2026-10-07T00:39:23.782,19188.0,0.0,0.0,0.0,0.0,0.0,6732.0,2188.0,15736.0,-439.0,864.0,idle
2026-10-07T00:39:23.827,19238.0,0.0,0.0,0.0,0.0,0.0,6764.0,2036.0,15556.0,-438.0,1051.0,idle
2026-10-07T00:39:23.878,19288.0,0.0,0.0,0.0,0.0,0.0,6628.0,2124.0,15816.0,-514.0,852.0,idle
2026-10-07T00:39:23.932,19338.0,0.0,0.0,0.0,0.0,0.0,6832.0,2188.0,15664.0,-431.0,953.0,idle
2026-10-07T00:39:23.978,19388.0,0.0,0.0,0.0,0.0,0.0,6812.0,2120.0,15808.0,-457.0,1119.0,idle
2026-10-07T00:39:24.027,19438.0,0.0,0.0,0.0,0.0,0.0,6736.0,2128.0,15708.0,-487.0,905.0,idle
2026-10-07T00:39:24.081,19488.0,0.0,0.0,0.0,0.0,0.0,6748.0,2128.0,15744.0,-483.0,906.0,idle
2026-10-07T00:39:24.123,19538.0,0.0,0.0,0.0,0.0,0.0,6876.0,2212.0,15640.0,-457.0,991.0,idle
2026-10-07T00:39:24.177,19588.0,0.0,0.0,0.0,0.0,0.0,6720.0,2140.0,15728.0,-532.0,1017.0,idle
2026-10-07T00:39:24.233,19638.0,0.0,0.0,0.0,0.0,0.0,6756.0,2104.0,15780.0,-597.0,900.0,idle
2026-10-07T00:39:24.281,19688.0,0.0,0.0,0.0,0.0,0.0,6852.0,2100.0,15764.0,-537.0,976.0,idle
2026-10-07T00:39:24.329,19738.0,0.0,0.0,0.0,0.0,0.0,6736.0,2076.0,15672.0,-469.0,1047.0,idle
2026-10-07T00:39:24.381,19788.0,0.0,0.0,0.0,0.0,0.0,6580.0,2172.0,15724.0,-536.0,888.0,idle
2026-10-07T00:39:24.433,19838.0,0.0,0.0,0.0,0.0,0.0,6652.0,2132.0,15780.0,-486.0,850.0,idle
2026-10-07T00:39:24.480,19888.0,0.0,0.0,0.0,0.0,0.0,6960.0,2040.0,15744.0,-380.0,684.0,idle
2026-10-07T00:39:24.529,19938.0,0.0,0.0,0.0,0.0,0.0,6956.0,2276.0,15740.0,-354.0,1021.0,idle
