timestamp,t1,t2,t3,t4,t5,ax,ay,az,gx,gy,gz,label
2026-10-07T00:36:41.552,1188.0,0.0,0.0,0.0,0.0,0.0,5836.0,1848.0,16128.0,-381.0,991.0,idle
2026-10-07T00:36:41.592,1238.0,0.0,0.0,0.0,0.0,0.0,5816.0,1616.0,16168.0,-442.0,973.0,idle
2026-10-07T00:36:41.642,1288.0,0.0,0.0,0.0,0.0,0.0,5804.0,1880.0,16180.0,-494.0,896.0,idle
2026-10-07T00:36:41.696,1338.0,0.0,0.0,0.0,0.0,0.0,5944.0,1648.0,16148.0,-575.0,960.0,idle
2026-10-07T00:36:41.746,1388.0,0.0,0.0,0.0,0.0,0.0,5776.0,1796.0,16148.0,-512.0,1065.0,idle
2026-10-07T00:36:41.793,1438.0,0.0,0.0,0.0,0.0,0.0,5784.0,1720.0,16244.0,-557.0,937.0,idle
2026-10-07T00:36:41.843,1488.0,0.0,0.0,0.0,0.0,0.0,5792.0,1692.0,16196.0,-494.0,999.0,idle
2026-10-07T00:36:41.893,1538.0,0.0,0.0,0.0,0.0,0.0,5776.0,1672.0,16180.0,-409.0,1024.0,idle
2026-10-07T00:36:41.945,1588.0,0.0,0.0,0.0,0.0,0.0,5820.0,1720.0,16048.0,-404.0,936.0,idle
2026-10-07T00:36:41.993,1638.0,0.0,0.0,0.0,0.0,0.0,6040.0,1796.0,16164.0,-437.0,898.0,idle
2026-10-07T00:36:42.043,1688.0,0.0,0.0,0.0,0.0,0.0,5980.0,1820.0,16116.0,-483.0,1074.0,idle
2026-10-07T00:36:42.092,1738.0,0.0,0.0,0.0,0.0,0.0,5824.0,1752.0,16244.0,-541.0,1268.0,idle
2026-10-07T00:36:42.144,1788.0,0.0,0.0,0.0,0.0,0.0,5712.0,1700.0,16100.0,-552.0,990.0,idle
2026-10-07T00:36:42.192,1838.0,0.0,0.0,0.0,0.0,0.0,5796.0,1828.0,16196.0,-528.0,1126.0,idle
2026-10-07T00:36:42.246,1888.0,0.0,0.0,0.0,0.0,0.0,5712.0,1768.0,16204.0,-602.0,1047.0,idle
2026-10-07T00:36:42.292,1938.0,0.0,0.0,0.0,0.0,0.0,5800.0,1752.0,16112.0,-623.0,998.0,idle
2026-10-07T00:36:42.346,1988.0,0.0,0.0,0.0,0.0,0.0,5816.0,1604.0,16256.0,-467.0,945.0,idle
2026-10-07T00:36:42.395,2038.0,0.0,0.0,0.0,0.0,0.0,5776.0,1708.0,16128.0,-534.0,994.0,idle
2026-10-07T00:36:42.445,2088.0,0.0,0.0,0.0,0.0,0.0,5820.0,1664.0,16036.0,-518.0,1154.0,idle
2026-10-07T00:36:42.493,2138.0,0.0,0.0,0.0,0.0,0.0,5764.0,1692.0,16200.0,-515.0,1083.0,idle
2026-10-07T00:36:42.542,2188.0,0.0,0.0,0.0,0.0,0.0,5704.0,1748.0,16116.0,-530.0,1053.0,idle
2026-10-07T00:36:42.593,2238.0,0.0,0.0,0.0,0.0,0.0,5664.0,1700.0,16260.0,-447.0,936.0,idle
2026-10-07T00:36:42.646,2288.0,0.0,0.0,0.0,0.0,0.0,5760.0,1656.0,16140.0,-418.0,964.0,idle
2026-10-07T00:36:42.696,2338.0,0.0,0.0,0.0,0.0,0.0,5736.0,1820.0,16068.0,-435.0,959.0,idle
2026-10-07T00:36:42.746,2388.0,0.0,0.0,0.0,0.0,0.0,5876.0,1676.0,16284.0,-511.0,881.0,idle
2026-10-07T00:36:42.795,2438.0,0.0,0.0,0.0,0.0,0.0,5792.0,1780.0,16140.0,-418.0,802.0,idle
2026-10-07T00:36:42.843,2488.0,0.0,0.0,0.0,0.0,0.0,5920.0,1668.0,16184.0,-390.0,1010.0,idle
2026-10-07T00:36:42.892,2538.0,0.0,0.0,0.0,0.0,0.0,5744.0,1732.0,16208.0,-434.0,1007.0,idle
2026-10-07T00:36:42.943,2588.0,0.0,0.0,0.0,0.0,0.0,5880.0,1720.0,16172.0,-431.0,796.0,idle
2026-10-07T00:36:42.996,2638.0,0.0,0.0,0.0,0.0,0.0,5976.0,1916.0,16064.0,-458.0,994.0,idle
2026-10-07T00:36:43.043,2688.0,0.0,0.0,0.0,0.0,0.0,5804.0,1620.0,16332.0,-494.0,1102.0,idle
2026-10-07T00:36:43.096,2738.0,0.0,0.0,0.0,0.0,0.0,5796.0,1800.0,16248.0,-473.0,955.0,idle
2026-10-07T00:36:43.145,2788.0,0.0,0.0,0.0,0.0,0.0,5908.0,1788.0,16236.0,-425.0,988.0,idle
2026-10-07T00:36:43.195,2838.0,0.0,0.0,0.0,0.0,0.0,5892.0,1744.0,16132.0,-516.0,1071.0,idle
2026-10-07T00:36:43.242,2888.0,0.0,0.0,0.0,0.0,0.0,5732.0,1680.0,16196.0,-462.0,1035.0,idle
2026-10-07T00:36:43.296,2938.0,0.0,0.0,0.0,0.0,0.0,5756.0,1776.0,16308.0,-424.0,889.0,idle
2026-10-07T00:36:43.345,2988.0,0.0,0.0,0.0,0.0,0.0,5892.0,1816.0,16224.0,-457.0,944.0,idle
2026-10-07T00:36:43.396,3038.0,0.0,0.0,0.0,0.0,0.0,5904.0,1828.0,16260.0,-520.0,950.0,idle
2026-10-07T00:36:43.446,3088.0,0.0,0.0,0.0,0.0,0.0,5932.0,1612.0,16116.0,-487.0,950.0,idle
2026-10-07T00:36:43.492,3138.0,0.0,0.0,0.0,0.0,0.0,5812.0,1900.0,16220.0,-537.0,1094.0,idle
2026-10-07T00:36:43.545,3188.0,0.0,0.0,0.0,0.0,0.0,5756.0,1632.0,16124.0,-537.0,1050.0,idle
2026-10-07T00:36:43.595,3238.0,0.0,0.0,0.0,0.0,0.0,5756.0,1792.0,16228.0,-447.0,972.0,idle
2026-10-07T00:36:43.642,3288.0,0.0,0.0,0.0,0.0,0.0,5884.0,1664.0,16244.0,-469.0,937.0,idle
2026-10-07T00:36:43.692,3338.0,0.0,0.0,0.0,0.0,0.0,5840.0,2024.0,16132.0,-507.0,1054.0,idle
2026-10-07T00:36:43.743,3388.0,0.0,0.0,0.0,0.0,0.0,5968.0,1580.0,16112.0,-554.0,959.0,idle
2026-10-07T00:36:43.792,3438.0,0.0,0.0,0.0,0.0,0.0,5816.0,1992.0,16348.0,-555.0,997.0,idle
2026-10-07T00:36:43.843,3488.0,0.0,0.0,0.0,0.0,0.0,5704.0,1676.0,16332.0,-568.0,1065.0,idle
2026-10-07T00:36:43.893,3538.0,0.0,0.0,0.0,0.0,0.0,5760.0,1700.0,16168.0,-457.0,832.0,idle
2026-10-07T00:36:43.942,3588.0,0.0,0.0,0.0,0.0,0.0,5992.0,1756.0,16112.0,-421.0,871.0,idle
2026-10-07T00:36:43.994,3638.0,0.0,0.0,0.0,0.0,0.0,5856.0,1936.0,16096.0,-462.0,1012.0,idle
2026-10-07T00:36:44.042,3688.0,0.0,0.0,0.0,0.0,0.0,5848.0,1676.0,16288.0,-538.0,1084.0,idle
2026-10-07T00:36:44.095,3738.0,0.0,0.0,0.0,0.0,0.0,5796.0,1796.0,16140.0,-541.0,986.0,idle
2026-10-07T00:36:44.143,3788.0,0.0,0.0,0.0,0.0,0.0,5888.0,1680.0,16280.0,-562.0,942.0,idle
2026-10-07T00:36:44.196,3838.0,0.0,0.0,0.0,0.0,0.0,5832.0,1772.0,16180.0,-478.0,1088.0,idle
2026-10-07T00:36:44.246,3888.0,0.0,0.0,0.0,0.0,0.0,5688.0,1816.0,16048.0,-517.0,993.0,idle
2026-10-07T00:36:44.292,3938.0,0.0,0.0,0.0,0.0,0.0,5804.0,1768.0,16276.0,-529.0,846.0,idle
2026-10-07T00:36:44.343,3988.0,0.0,0.0,0.0,0.0,0.0,5896.0,1728.0,16292.0,-436.0,945.0,idle
2026-10-07T00:36:44.394,4038.0,0.0,0.0,0.0,0.0,0.0,6000.0,1756.0,16176.0,-455.0,990.0,idle
2026-10-07T00:36:44.443,4088.0,0.0,0.0,0.0,0.0,0.0,5912.0,1760.0,16224.0,-507.0,995.0,idle
2026-10-07T00:36:44.495,4138.0,0.0,0.0,0.0,0.0,0.0,5976.0,1732.0,16140.0,-500.0,919.0,idle
2026-10-07T00:36:44.544,4188.0,0.0,0.0,0.0,0.0,0.0,5948.0,1956.0,16112.0,-539.0,1203.0,idle
2026-10-07T00:36:44.593,4238.0,0.0,0.0,0.0,0.0,0.0,5600.0,1816.0,16288.0,-657.0,1342.0,idle
2026-10-07T00:36:44.643,4288.0,0.0,0.0,0.0,0.0,0.0,5676.0,1624.0,16132.0,-569.0,1023.0,idle
2026-10-07T00:36:44.696,4338.0,0.0,0.0,0.0,0.0,0.0,5884.0,1552.0,16128.0,-408.0,943.0,idle
2026-10-07T00:36:44.744,4388.0,0.0,0.0,0.0,0.0,0.0,5932.0,1944.0,16160.0,-476.0,973.0,idle
2026-10-07T00:36:44.795,4438.0,0.0,0.0,0.0,0.0,0.0,5824.0,1796.0,16116.0,-556.0,1084.0,idle
2026-10-07T00:36:44.842,4488.0,0.0,0.0,0.0,0.0,0.0,5692.0,1744.0,16224.0,-546.0,1095.0,idle
2026-10-07T00:36:44.896,4538.0,0.0,0.0,0.0,0.0,0.0,5692.0,1752.0,16328.0,-540.0,980.0,idle
2026-10-07T00:36:44.943,4588.0,0.0,0.0,0.0,0.0,0.0,5748.0,1700.0,16112.0,-433.0,980.0,idle
2026-10-07T00:36:44.995,4638.0,0.0,0.0,0.0,0.0,0.0,5824.0,1756.0,16192.0,-427.0,928.0,idle
2026-10-07T00:36:45.043,4688.0,0.0,0.0,0.0,0.0,0.0,5772.0,1824.0,16228.0,-480.0,962.0,idle
2026-10-07T00:36:45.092,4738.0,0.0,0.0,0.0,0.0,0.0,5816.0,1596.0,16132.0,-537.0,1020.0,idle
2026-10-07T00:36:45.143,4788.0,0.0,0.0,0.0,0.0,0.0,5892.0,1768.0,16080.0,-419.0,948.0,idle
2026-10-07T00:36:45.194,4838.0,0.0,0.0,0.0,0.0,0.0,5780.0,1776.0,16124.0,-451.0,1089.0,idle
2026-10-07T00:36:45.243,4888.0,0.0,0.0,0.0,0.0,0.0,5708.0,1752.0,16212.0,-556.0,971.0,idle
2026-10-07T00:36:45.295,4938.0,0.0,0.0,0.0,0.0,0.0,5832.0,1764.0,16100.0,-428.0,899.0,idle
2026-10-07T00:36:45.342,4988.0,0.0,0.0,0.0,0.0,0.0,5776.0,1680.0,16276.0,-496.0,966.0,idle
2026-10-07T00:36:45.396,5038.0,0.0,0.0,0.0,0.0,0.0,5876.0,1824.0,16260.0,-483.0,904.0,idle
2026-10-07T00:36:45.443,5088.0,0.0,0.0,0.0,0.0,0.0,5852.0,1672.0,16056.0,-403.0,992.0,idle
2026-10-07T00:36:45.496,5138.0,0.0,0.0,0.0,0.0,0.0,5852.0,1776.0,16104.0,-398.0,1038.0,idle
2026-10-07T00:36:45.546,5188.0,0.0,0.0,0.0,0.0,0.0,5848.0,1836.0,16120.0,-479.0,990.0,idle
2026-10-07T00:36:45.594,5238.0,0.0,0.0,0.0,0.0,0.0,5840.0,1880.0,16156.0,-521.0,1029.0,idle
2026-10-07T00:36:45.643,5288.0,0.0,0.0,0.0,0.0,0.0,5928.0,1768.0,16056.0,-505.0,1081.0,idle
2026-10-07T00:36:45.696,5338.0,0.0,0.0,0.0,0.0,0.0,5696.0,1824.0,16184.0,-524.0,1043.0,idle
2026-10-07T00:36:45.743,5388.0,0.0,0.0,0.0,0.0,0.0,5672.0,1604.0,16180.0,-525.0,946.0,idle
2026-10-07T00:36:45.792,5438.0,0.0,0.0,0.0,0.0,0.0,5768.0,1804.0,16228.0,-491.0,1035.0,idle
2026-10-07T00:36:45.842,5488.0,0.0,0.0,0.0,0.0,0.0,5820.0,1680.0,16272.0,-435.0,968.0,idle
2026-10-07T00:36:45.893,5538.0,0.0,0.0,0.0,0.0,0.0,5884.0,1704.0,16160.0,-434.0,943.0,idle
2026-10-07T00:36:45.943,5588.0,0.0,0.0,0.0,0.0,0.0,5912.0,1892.0,16036.0,-511.0,949.0,idle
2026-10-07T00:36:45.993,5638.0,0.0,0.0,0.0,0.0,0.0,5968.0,1732.0,16160.0,-593.0,991.0,idle
2026-10-07T00:36:46.043,5688.0,0.0,0.0,0.0,0.0,0.0,5804.0,1672.0,16240.0,-493.0,1146.0,idle
2026-10-07T00:36:46.095,5738.0,0.0,0.0,0.0,0.0,0.0,5576.0,1792.0,16428.0,-443.0,1070.0,idle
2026-10-07T00:36:46.143,5788.0,0.0,0.0,0.0,0.0,0.0,5780.0,1800.0,16100.0,-511.0,797.0,idle
2026-10-07T00:36:46.193,5838.0,0.0,0.0,0.0,0.0,0.0,5872.0,1688.0,16240.0,-422.0,1013.0,idle
2026-10-07T00:36:46.243,5888.0,0.0,0.0,0.0,0.0,0.0,5880.0,1844.0,16144.0,-391.0,1015.0,idle
2026-10-07T00:36:46.292,5938.0,0.0,0.0,0.0,0.0,0.0,5840.0,1880.0,16124.0,-512.0,968.0,idle
2026-10-07T00:36:46.343,5988.0,0.0,0.0,0.0,0.0,0.0,5784.0,1760.0,16196.0,-503.0,994.0,idle
2026-10-07T00:36:46.393,6038.0,0.0,0.0,0.0,0.0,0.0,5956.0,1672.0,16076.0,-528.0,897.0,idle
2026-10-07T00:36:46.443,6088.0,0.0,0.0,0.0,0.0,0.0,5824.0,1812.0,16352.0,-529.0,1123.0,idle
2026-10-07T00:36:46.494,6138.0,0.0,0.0,0.0,0.0,0.0,5700.0,1760.0,16180.0,-522.0,1026.0,idle
2026-10-07T00:36:46.542,6188.0,0.0,0.0,0.0,0.0,0.0,5780.0,1672.0,16204.0,-476.0,864.0,idle
2026-10-07T00:36:46.593,6238.0,0.0,0.0,0.0,0.0,0.0,5892.0,1800.0,16236.0,-480.0,927.0,idle
2026-10-07T00:36:46.644,6288.0,0.0,0.0,0.0,0.0,0.0,5956.0,1768.0,16128.0,-434.0,942.0,idle
2026-10-07T00:36:46.696,6338.0,0.0,0.0,0.0,0.0,0.0,5856.0,1912.0,16184.0,-478.0,1056.0,idle
2026-10-07T00:36:46.741,6388.0,0.0,0.0,0.0,0.0,0.0,5832.0,1668.0,16256.0,-598.0,967.0,idle
2026-10-07T00:36:46.796,6438.0,0.0,0.0,0.0,0.0,0.0,5856.0,1772.0,16088.0,-545.0,944.0,idle
2026-10-07T00:36:46.843,6488.0,0.0,0.0,0.0,0.0,0.0,5788.0,1740.0,16200.0,-421.0,998.0,idle
2026-10-07T00:36:46.896,6538.0,0.0,0.0,0.0,0.0,0.0,5744.0,1884.0,16108.0,-448.0,1003.0,idle
2026-10-07T00:36:46.943,6588.0,0.0,0.0,0.0,0.0,0.0,6008.0,1716.0,16040.0,-495.0,781.0,idle
2026-10-07T00:36:46.995,6638.0,0.0,0.0,0.0,0.0,0.0,5888.0,1732.0,16080.0,-401.0,974.0,idle
2026-10-07T00:36:47.043,6688.0,0.0,0.0,0.0,0.0,0.0,5872.0,1596.0,16252.0,-351.0,920.0,idle
2026-10-07T00:36:47.095,6738.0,0.0,0.0,0.0,0.0,0.0,5904.0,1752.0,16068.0,-310.0,873.0,idle
2026-10-07T00:36:47.141,6788.0,0.0,0.0,0.0,0.0,0.0,6044.0,2008.0,15932.0,-437.0,902.0,idle
2026-10-07T00:36:47.192,6838.0,0.0,0.0,0.0,0.0,0.0,6048.0,1828.0,16136.0,-596.0,972.0,idle
2026-10-07T00:36:47.243,6888.0,0.0,0.0,0.0,0.0,0.0,5960.0,1864.0,16048.0,-601.0,1072.0,idle
2026-10-07T00:36:47.293,6938.0,0.0,0.0,0.0,0.0,0.0,5812.0,1608.0,16016.0,-494.0,1067.0,idle
2026-10-07T00:36:47.343,6988.0,0.0,0.0,0.0,0.0,0.0,5640.0,1736.0,16056.0,-425.0,961.0,idle
2026-10-07T00:36:47.393,7038.0,0.0,0.0,0.0,0.0,0.0,5932.0,1792.0,16268.0,-327.0,812.0,idle
2026-10-07T00:36:47.443,7088.0,0.0,0.0,0.0,0.0,0.0,6120.0,2080.0,15920.0,-439.0,1035.0,idle
2026-10-07T00:36:47.493,7138.0,0.0,0.0,0.0,0.0,0.0,6008.0,1844.0,16200.0,-606.0,1170.0,idle
2026-10-07T00:36:47.546,7188.0,0.0,0.0,0.0,0.0,0.0,5900.0,1796.0,16072.0,-528.0,1239.0,idle
2026-10-07T00:36:47.593,7238.0,0.0,0.0,0.0,0.0,0.0,5736.0,1748.0,16228.0,-502.0,1110.0,idle
2026-10-07T00:36:47.646,7288.0,0.0,0.0,0.0,0.0,0.0,5800.0,1896.0,16308.0,-495.0,914.0,idle
2026-10-07T00:36:47.692,7338.0,0.0,0.0,0.0,0.0,0.0,5864.0,1752.0,16080.0,-485.0,979.0,idle
2026-10-07T00:36:47.745,7388.0,0.0,0.0,0.0,0.0,0.0,5964.0,1884.0,16264.0,-475.0,980.0,idle
2026-10-07T00:36:47.793,7438.0,0.0,0.0,0.0,0.0,0.0,5928.0,1820.0,16128.0,-518.0,1038.0,idle
2026-10-07T00:36:47.846,7488.0,0.0,0.0,0.0,0.0,0.0,5876.0,1744.0,16216.0,-506.0,1116.0,idle
2026-10-07T00:36:47.893,7538.0,0.0,0.0,0.0,0.0,0.0,5848.0,1844.0,16152.0,-525.0,944.0,idle
2026-10-07T00:36:47.941,7588.0,0.0,0.0,0.0,0.0,0.0,5968.0,1840.0,16084.0,-518.0,993.0,idle
2026-10-07T00:36:47.993,7638.0,0.0,0.0,0.0,0.0,0.0,5860.0,1924.0,16116.0,-527.0,1031.0,idle
2026-10-07T00:36:48.043,7688.0,0.0,0.0,0.0,0.0,0.0,5784.0,1732.0,16240.0,-543.0,1025.0,idle
2026-10-07T00:36:48.095,7738.0,0.0,0.0,0.0,0.0,0.0,5840.0,1816.0,16332.0,-496.0,987.0,idle
2026-10-07T00:36:48.141,7788.0,0.0,0.0,0.0,0.0,0.0,5980.0,1732.0,16192.0,-504.0,923.0,idle
2026-10-07T00:36:48.193,7838.0,0.0,0.0,0.0,0.0,0.0,5836.0,1928.0,16240.0,-482.0,1039.0,idle
2026-10-07T00:36:48.242,7888.0,0.0,0.0,0.0,0.0,0.0,5944.0,1740.0,16156.0,-535.0,1016.0,idle
2026-10-07T00:36:48.293,7938.0,0.0,0.0,0.0,0.0,0.0,5824.0,1760.0,16200.0,-545.0,961.0,idle
2026-10-07T00:36:48.343,7988.0,0.0,0.0,0.0,0.0,0.0,5860.0,1860.0,16156.0,-492.0,1033.0,idle
2026-10-07T00:36:48.392,8038.0,0.0,0.0,0.0,0.0,0.0,5952.0,1644.0,16092.0,-468.0,1034.0,idle
2026-10-07T00:36:48.443,8088.0,0.0,0.0,0.0,0.0,0.0,5752.0,1860.0,16064.0,-433.0,1027.0,idle
2026-10-07T00:36:48.495,8138.0,0.0,0.0,0.0,0.0,0.0,5768.0,1896.0,16060.0,-502.0,997.0,idle
2026-10-07T00:36:48.542,8188.0,0.0,0.0,0.0,0.0,0.0,5840.0,1744.0,16044.0,-518.0,882.0,idle
2026-10-07T00:36:48.595,8238.0,0.0,0.0,0.0,0.0,0.0,5912.0,1876.0,16088.0,-474.0,896.0,idle
2026-10-07T00:36:48.643,8288.0,0.0,0.0,0.0,0.0,0.0,6044.0,1792.0,16116.0,-530.0,1014.0,idle
2026-10-07T00:36:48.693,8338.0,0.0,0.0,0.0,0.0,0.0,5888.0,1920.0,16244.0,-541.0,1121.0,idle
2026-10-07T00:36:48.742,8388.0,0.0,0.0,0.0,0.0,0.0,5876.0,1732.0,16152.0,-600.0,1104.0,idle
2026-10-07T00:36:48.792,8438.0,0.0,0.0,0.0,0.0,0.0,5736.0,1652.0,16264.0,-490.0,1036.0,idle
2026-10-07T00:36:48.841,8488.0,0.0,0.0,0.0,0.0,0.0,5844.0,1776.0,16088.0,-419.0,884.0,idle
2026-10-07T00:36:48.892,8538.0,0.0,0.0,0.0,0.0,0.0,6052.0,1868.0,16120.0,-397.0,943.0,idle
2026-10-07T00:36:48.942,8588.0,0.0,0.0,0.0,0.0,0.0,5936.0,1896.0,16120.0,-540.0,1067.0,idle
2026-10-07T00:36:48.993,8638.0,0.0,0.0,0.0,0.0,0.0,5872.0,1728.0,16196.0,-545.0,1021.0,idle
2026-10-07T00:36:49.042,8688.0,0.0,0.0,0.0,0.0,0.0,5812.0,1716.0,16148.0,-450.0,1072.0,idle
2026-10-07T00:36:49.095,8738.0,0.0,0.0,0.0,0.0,0.0,5736.0,1836.0,16116.0,-472.0,1054.0,idle
2026-10-07T00:36:49.141,8788.0,0.0,0.0,0.0,0.0,0.0,5704.0,1868.0,16196.0,-479.0,841.0,idle
2026-10-07T00:36:49.194,8838.0,0.0,0.0,0.0,0.0,0.0,5968.0,1676.0,16060.0,-433.0,915.0,idle
2026-10-07T00:36:49.242,8888.0,0.0,0.0,0.0,0.0,0.0,5912.0,1832.0,16156.0,-447.0,899.0,idle
2026-10-07T00:36:49.293,8938.0,0.0,0.0,0.0,0.0,0.0,5824.0,1948.0,16120.0,-473.0,1012.0,idle
2026-10-07T00:36:49.342,8988.0,0.0,0.0,0.0,0.0,0.0,5884.0,1800.0,16116.0,-493.0,985.0,idle
2026-10-07T00:36:49.391,9038.0,0.0,0.0,0.0,0.0,0.0,5904.0,1864.0,16172.0,-517.0,1001.0,idle
2026-10-07T00:36:49.442,9088.0,0.0,0.0,0.0,0.0,0.0,5956.0,1896.0,16088.0,-541.0,1080.0,idle
2026-10-07T00:36:49.495,9138.0,0.0,0.0,0.0,0.0,0.0,5792.0,1728.0,16208.0,-571.0,1058.0,idle
2026-10-07T00:36:49.545,9188.0,0.0,0.0,0.0,0.0,0.0,5792.0,1912.0,16344.0,-599.0,880.0,idle
2026-10-07T00:36:49.592,9238.0,0.0,0.0,0.0,0.0,0.0,5968.0,1740.0,16128.0,-447.0,955.0,idle
2026-10-07T00:36:49.645,9288.0,0.0,0.0,0.0,0.0,0.0,5884.0,1824.0,16140.0,-423.0,986.0,idle
2026-10-07T00:36:49.695,9338.0,0.0,0.0,0.0,0.0,0.0,6004.0,1844.0,16200.0,-460.0,862.0,idle
2026-10-07T00:36:49.742,9388.0,0.0,0.0,0.0,0.0,0.0,5904.0,1788.0,16052.0,-475.0,976.0,idle
2026-10-07T00:36:49.792,9438.0,0.0,0.0,0.0,0.0,0.0,5912.0,1680.0,16044.0,-458.0,797.0,idle
2026-10-07T00:36:49.842,9488.0,0.0,0.0,0.0,0.0,0.0,6012.0,1820.0,16016.0,-511.0,1013.0,idle
2026-10-07T00:36:49.892,9538.0,0.0,0.0,0.0,0.0,0.0,5868.0,1740.0,16096.0,-534.0,1115.0,idle
2026-10-07T00:36:49.942,9588.0,0.0,0.0,0.0,0.0,0.0,5936.0,1748.0,16248.0,-728.0,968.0,idle
2026-10-07T00:36:49.991,9638.0,0.0,0.0,0.0,0.0,0.0,5796.0,1820.0,16016.0,-280.0,766.0,idle
2026-10-07T00:36:50.045,9688.0,0.0,0.0,0.0,0.0,0.0,5960.0,1756.0,16012.0,-517.0,996.0,idle
2026-10-07T00:36:50.092,9738.0,0.0,0.0,0.0,0.0,0.0,5920.0,1808.0,16176.0,-492.0,1173.0,idle
2026-10-07T00:36:50.146,9788.0,0.0,0.0,0.0,0.0,0.0,5912.0,1816.0,16140.0,-603.0,1086.0,idle
2026-10-07T00:36:50.192,9838.0,0.0,0.0,0.0,0.0,0.0,5948.0,1848.0,16092.0,-553.0,968.0,idle
2026-10-07T00:36:50.241,9888.0,0.0,0.0,0.0,0.0,0.0,5868.0,1720.0,16200.0,-651.0,1101.0,idle
2026-10-07T00:36:50.292,9938.0,0.0,0.0,0.0,0.0,0.0,5828.0,1696.0,16224.0,-551.0,1116.0,idle
2026-10-07T00:36:50.342,9988.0,0.0,0.0,0.0,0.0,0.0,5852.0,1788.0,16192.0,-493.0,1134.0,idle
2026-10-07T00:36:50.392,10038.0,0.0,0.0,0.0,0.0,0.0,5812.0,1716.0,16024.0,-424.0,976.0,idle
2026-10-07T00:36:50.442,10088.0,0.0,0.0,0.0,0.0,0.0,5952.0,1872.0,16152.0,-490.0,937.0,idle
2026-10-07T00:36:50.493,10138.0,0.0,0.0,0.0,0.0,0.0,5936.0,1664.0,16004.0,-489.0,1133.0,idle
2026-10-07T00:36:50.543,10188.0,0.0,0.0,0.0,0.0,0.0,5836.0,1756.0,16184.0,-444.0,1153.0,idle
2026-10-07T00:36:50.592,10238.0,0.0,0.0,0.0,0.0,0.0,5668.0,1716.0,16296.0,-532.0,1056.0,idle
2026-10-07T00:36:50.645,10288.0,0.0,0.0,0.0,0.0,0.0,5792.0,1796.0,16068.0,-556.0,856.0,idle
2026-10-07T00:36:50.695,10338.0,0.0,0.0,0.0,0.0,0.0,5916.0,1672.0,16088.0,-458.0,909.0,idle
2026-10-07T00:36:50.744,10388.0,0.0,0.0,0.0,0.0,0.0,5876.0,1792.0,16204.0,-430.0,1081.0,idle
2026-10-07T00:36:50.792,10438.0,0.0,0.0,0.0,0.0,0.0,5820.0,1820.0,16056.0,-480.0,1050.0,idle
2026-10-07T00:36:50.842,10488.0,0.0,0.0,0.0,0.0,0.0,5792.0,1808.0,16204.0,-482.0,986.0,idle
2026-10-07T00:36:50.891,10538.0,0.0,0.0,0.0,0.0,0.0,5980.0,1676.0,16168.0,-544.0,965.0,idle
2026-10-07T00:36:50.941,10588.0,0.0,0.0,0.0,0.0,0.0,5816.0,1772.0,16016.0,-494.0,941.0,idle
2026-10-07T00:36:50.995,10638.0,0.0,0.0,0.0,0.0,0.0,5828.0,1700.0,16220.0,-549.0,1015.0,idle
2026-10-07T00:36:51.045,10688.0,0.0,0.0,0.0,0.0,0.0,5796.0,1840.0,16200.0,-469.0,1014.0,idle
2026-10-07T00:36:51.092,10738.0,0.0,0.0,0.0,0.0,0.0,5908.0,1748.0,16204.0,-469.0,929.0,idle
2026-10-07T00:36:51.142,10788.0,0.0,0.0,0.0,0.0,0.0,5936.0,1716.0,16148.0,-469.0,982.0,idle
2026-10-07T00:36:51.195,10838.0,0.0,0.0,0.0,0.0,0.0,5836.0,1844.0,16172.0,-526.0,1038.0,idle
2026-10-07T00:36:51.242,10888.0,0.0,0.0,0.0,0.0,0.0,5888.0,1676.0,16176.0,-524.0,1034.0,idle
2026-10-07T00:36:51.296,10938.0,0.0,0.0,0.0,0.0,0.0,5876.0,1724.0,16072.0,-481.0,1023.0,idle
2026-10-07T00:36:51.343,10988.0,0.0,0.0,0.0,0.0,0.0,5836.0,1616.0,16180.0,-482.0,921.0,idle
2026-10-07T00:36:51.394,11038.0,0.0,0.0,0.0,0.0,0.0,5848.0,1840.0,16124.0,-469.0,1004.0,idle
2026-10-07T00:36:51.442,11088.0,0.0,0.0,0.0,0.0,0.0,5792.0,1748.0,16236.0,-497.0,977.0,idle
2026-10-07T00:36:51.492,11138.0,0.0,0.0,0.0,0.0,0.0,5880.0,1676.0,16108.0,-522.0,886.0,idle
2026-10-07T00:36:51.542,11188.0,0.0,0.0,0.0,0.0,0.0,5904.0,1764.0,16132.0,-452.0,1022.0,idle
2026-10-07T00:36:51.592,11238.0,0.0,0.0,0.0,0.0,0.0,5836.0,1796.0,16216.0,-393.0,965.0,idle
2026-10-07T00:36:51.642,11288.0,0.0,0.0,0.0,0.0,0.0,5880.0,1844.0,16144.0,-538.0,980.0,idle
2026-10-07T00:36:51.692,11338.0,0.0,0.0,0.0,0.0,0.0,5844.0,1788.0,16128.0,-482.0,1004.0,idle
2026-10-07T00:36:51.742,11388.0,0.0,0.0,0.0,0.0,0.0,5876.0,1696.0,16088.0,-498.0,972.0,idle
2026-10-07T00:36:51.792,11438.0,0.0,0.0,0.0,0.0,0.0,5796.0,1792.0,16088.0,-467.0,1044.0,idle
2026-10-07T00:36:51.842,11488.0,0.0,0.0,0.0,0.0,0.0,5828.0,1800.0,16148.0,-457.0,984.0,idle
2026-10-07T00:36:51.895,11538.0,0.0,0.0,0.0,0.0,0.0,5868.0,1684.0,16096.0,-520.0,963.0,idle
2026-10-07T00:36:51.942,11588.0,0.0,0.0,0.0,0.0,0.0,5864.0,1800.0,16184.0,-461.0,931.0,idle
2026-10-07T00:36:51.992,11638.0,0.0,0.0,0.0,0.0,0.0,5884.0,1804.0,16060.0,-473.0,954.0,idle
2026-10-07T00:36:52.045,11688.0,0.0,0.0,0.0,0.0,0.0,5956.0,1816.0,16132.0,-471.0,1032.0,idle
2026-10-07T00:36:52.092,11738.0,0.0,0.0,0.0,0.0,0.0,5864.0,1672.0,16060.0,-516.0,958.0,idle
2026-10-07T00:36:52.142,11788.0,0.0,0.0,0.0,0.0,0.0,5820.0,1776.0,16164.0,-491.0,973.0,idle
2026-10-07T00:36:52.191,11838.0,0.0,0.0,0.0,0.0,0.0,5848.0,1652.0,16200.0,-505.0,973.0,idle
2026-10-07T00:36:52.241,11888.0,0.0,0.0,0.0,0.0,0.0,5864.0,1848.0,16136.0,-480.0,1057.0,idle
2026-10-07T00:36:52.295,11938.0,0.0,0.0,0.0,0.0,0.0,5764.0,1800.0,16156.0,-501.0,976.0,idle
2026-10-07T00:36:52.341,11988.0,0.0,0.0,0.0,0.0,0.0,5944.0,1608.0,16120.0,-507.0,818.0,idle
2026-10-07T00:36:52.392,12038.0,0.0,0.0,0.0,0.0,0.0,5988.0,1736.0,16104.0,-411.0,976.0,idle
2026-10-07T00:36:52.442,12088.0,0.0,0.0,0.0,0.0,0.0,5972.0,1780.0,16028.0,-431.0,915.0,idle
2026-10-07T00:36:52.496,12138.0,0.0,0.0,0.0,0.0,0.0,5936.0,1832.0,16104.0,-476.0,974.0,idle
2026-10-07T00:36:52.546,12188.0,0.0,0.0,0.0,0.0,0.0,5864.0,1760.0,16168.0,-495.0,1053.0,idle
2026-10-07T00:36:52.594,12238.0,0.0,0.0,0.0,0.0,0.0,5988.0,1728.0,16108.0,-470.0,896.0,idle
2026-10-07T00:36:52.642,12288.0,0.0,0.0,0.0,0.0,0.0,5900.0,1820.0,16032.0,-502.0,967.0,idle
2026-10-07T00:36:52.692,12338.0,0.0,0.0,0.0,0.0,0.0,5896.0,1720.0,16092.0,-533.0,1015.0,idle
2026-10-07T00:36:52.742,12388.0,0.0,0.0,0.0,0.0,0.0,5960.0,1812.0,16140.0,-522.0,948.0,idle
2026-10-07T00:36:52.792,12438.0,0.0,0.0,0.0,0.0,0.0,5944.0,1740.0,16140.0,-452.0,1001.0,idle
2026-10-07T00:36:52.845,12488.0,0.0,0.0,0.0,0.0,0.0,6004.0,1932.0,16072.0,-462.0,972.0,idle
2026-10-07T00:36:52.892,12538.0,0.0,0.0,0.0,0.0,0.0,5964.0,1860.0,16024.0,-501.0,1099.0,idle
2026-10-07T00:36:52.945,12588.0,0.0,0.0,0.0,0.0,0.0,5892.0,1756.0,16228.0,-560.0,1167.0,idle
2026-10-07T00:36:52.992,12638.0,0.0,0.0,0.0,0.0,0.0,5928.0,1712.0,15908.0,-561.0,1144.0,idle
2026-10-07T00:36:53.045,12688.0,0.0,0.0,0.0,0.0,0.0,5804.0,1868.0,16040.0,-517.0,1075.0,idle
2026-10-07T00:36:53.094,12738.0,0.0,0.0,0.0,0.0,0.0,5820.0,1784.0,16208.0,-535.0,905.0,idle
2026-10-07T00:36:53.145,12788.0,0.0,0.0,0.0,0.0,0.0,5876.0,1732.0,16112.0,-534.0,945.0,idle
2026-10-07T00:36:53.191,12838.0,0.0,0.0,0.0,0.0,0.0,5960.0,1744.0,16092.0,-436.0,1090.0,idle
2026-10-07T00:36:53.241,12888.0,0.0,0.0,0.0,0.0,0.0,5876.0,1796.0,16132.0,-489.0,1078.0,idle
2026-10-07T00:36:53.292,12938.0,0.0,0.0,0.0,0.0,0.0,5840.0,1784.0,16016.0,-526.0,1110.0,idle
2026-10-07T00:36:53.345,12988.0,0.0,0.0,0.0,0.0,0.0,5868.0,1816.0,16208.0,-582.0,1026.0,idle
2026-10-07T00:36:53.392,13038.0,0.0,0.0,0.0,0.0,0.0,5940.0,1708.0,16176.0,-546.0,1014.0,idle
2026-10-07T00:36:53.443,13088.0,0.0,0.0,0.0,0.0,0.0,5808.0,1832.0,16064.0,-543.0,1110.0,idle
2026-10-07T00:36:53.495,13138.0,0.0,0.0,0.0,0.0,0.0,5828.0,1648.0,16188.0,-542.0,1041.0,idle
2026-10-07T00:36:53.546,13188.0,0.0,0.0,0.0,0.0,0.0,5768.0,1828.0,16116.0,-441.0,930.0,idle
2026-10-07T00:36:53.595,13238.0,0.0,0.0,0.0,0.0,0.0,5872.0,1716.0,16068.0,-494.0,979.0,idle
2026-10-07T00:36:53.642,13288.0,0.0,0.0,0.0,0.0,0.0,5948.0,1864.0,16024.0,-473.0,958.0,idle
2026-10-07T00:36:53.695,13338.0,0.0,0.0,0.0,0.0,0.0,5892.0,1748.0,16140.0,-573.0,1194.0,idle
2026-10-07T00:36:53.742,13388.0,0.0,0.0,0.0,0.0,0.0,5880.0,1668.0,16208.0,-486.0,975.0,idle
2026-10-07T00:36:53.791,13438.0,0.0,0.0,0.0,0.0,0.0,5952.0,1808.0,16068.0,-486.0,960.0,idle
2026-10-07T00:36:53.842,13488.0,0.0,0.0,0.0,0.0,0.0,5788.0,1752.0,16112.0,-490.0,969.0,idle
2026-10-07T00:36:53.893,13538.0,0.0,0.0,0.0,0.0,0.0,5784.0,1812.0,16088.0,-552.0,1003.0,idle
2026-10-07T00:36:53.941,13588.0,0.0,0.0,0.0,0.0,0.0,5908.0,1712.0,16072.0,-441.0,985.0,idle
2026-10-07T00:36:53.995,13638.0,0.0,0.0,0.0,0.0,0.0,5852.0,1904.0,16160.0,-466.0,1027.0,idle
2026-10-07T00:36:54.042,13688.0,0.0,0.0,0.0,0.0,0.0,5792.0,1752.0,16172.0,-470.0,1051.0,idle
2026-10-07T00:36:54.092,13738.0,0.0,0.0,0.0,0.0,0.0,5848.0,1844.0,16172.0,-464.0,924.0,idle
2026-10-07T00:36:54.145,13788.0,0.0,0.0,0.0,0.0,0.0,5872.0,1732.0,16224.0,-519.0,1001.0,idle
2026-10-07T00:36:54.195,13838.0,0.0,0.0,0.0,0.0,0.0,5752.0,1740.0,16192.0,-566.0,1054.0,idle
2026-10-07T00:36:54.245,13888.0,0.0,0.0,0.0,0.0,0.0,5820.0,1748.0,16128.0,-521.0,885.0,idle
2026-10-07T00:36:54.295,13938.0,0.0,0.0,0.0,0.0,0.0,5900.0,1684.0,16064.0,-430.0,862.0,idle
2026-10-07T00:36:54.342,13988.0,0.0,0.0,0.0,0.0,0.0,5908.0,1820.0,16228.0,-439.0,973.0,idle
2026-10-07T00:36:54.395,14038.0,0.0,0.0,0.0,0.0,0.0,5940.0,1868.0,16020.0,-498.0,919.0,idle
2026-10-07T00:36:54.442,14088.0,0.0,0.0,0.0,0.0,0.0,5932.0,1804.0,16124.0,-488.0,913.0,idle
2026-10-07T00:36:54.495,14138.0,0.0,0.0,0.0,0.0,0.0,5940.0,1708.0,16172.0,-441.0,972.0,idle
2026-10-07T00:36:54.542,14188.0,0.0,0.0,0.0,0.0,0.0,5968.0,1888.0,16184.0,-485.0,986.0,idle
2026-10-07T00:36:54.591,14238.0,0.0,0.0,0.0,0.0,0.0,5872.0,1920.0,16068.0,-542.0,1058.0,idle
2026-10-07T00:36:54.642,14288.0,0.0,0.0,0.0,0.0,0.0,5736.0,1804.0,16148.0,-542.0,1091.0,idle
2026-10-07T00:36:54.694,14338.0,0.0,0.0,0.0,0.0,0.0,5836.0,1684.0,16168.0,-554.0,864.0,idle
2026-10-07T00:36:54.742,14388.0,0.0,0.0,0.0,0.0,0.0,5988.0,1824.0,16080.0,-488.0,948.0,idle
2026-10-07T00:36:54.792,14438.0,0.0,0.0,0.0,0.0,0.0,6008.0,1796.0,16212.0,-561.0,945.0,idle
2026-10-07T00:36:54.844,14488.0,0.0,0.0,0.0,0.0,0.0,5896.0,1756.0,16136.0,-552.0,1059.0,idle
2026-10-07T00:36:54.896,14538.0,0.0,0.0,0.0,0.0,0.0,5912.0,1684.0,16228.0,-543.0,987.0,idle
2026-10-07T00:36:54.942,14588.0,0.0,0.0,0.0,0.0,0.0,5904.0,1756.0,16236.0,-552.0,967.0,idle
2026-10-07T00:36:54.995,14638.0,0.0,0.0,0.0,0.0,0.0,5900.0,1664.0,16160.0,-525.0,1035.0,idle
2026-10-07T00:36:55.042,14688.0,0.0,0.0,0.0,0.0,0.0,5880.0,1644.0,16116.0,-507.0,988.0,idle
2026-10-07T00:36:55.095,14738.0,0.0,0.0,0.0,0.0,0.0,5876.0,1728.0,16172.0,-447.0,955.0,idle
2026-10-07T00:36:55.142,14788.0,0.0,0.0,0.0,0.0,0.0,6000.0,1692.0,16104.0,-469.0,986.0,idle
2026-10-07T00:36:55.195,14838.0,0.0,0.0,0.0,0.0,0.0,6052.0,1768.0,16112.0,-514.0,1019.0,idle
2026-10-07T00:36:55.245,14888.0,0.0,0.0,0.0,0.0,0.0,6000.0,1772.0,15988.0,-489.0,1061.0,idle
2026-10-07T00:36:55.291,14938.0,0.0,0.0,0.0,0.0,0.0,5820.0,1732.0,16276.0,-487.0,1049.0,idle
2026-10-07T00:36:55.345,14988.0,0.0,0.0,0.0,0.0,0.0,5852.0,1736.0,16128.0,-431.0,1058.0,idle
2026-10-07T00:36:55.392,15038.0,0.0,0.0,0.0,0.0,0.0,5820.0,1836.0,16200.0,-463.0,1081.0,idle
2026-10-07T00:36:55.442,15088.0,0.0,0.0,0.0,0.0,0.0,5940.0,1780.0,16280.0,-512.0,873.0,idle
2026-10-07T00:36:55.492,15138.0,0.0,0.0,0.0,0.0,0.0,6028.0,1680.0,16060.0,-413.0,1037.0,idle
2026-10-07T00:36:55.545,15188.0,0.0,0.0,0.0,0.0,0.0,5892.0,1800.0,16148.0,-502.0,980.0,idle
2026-10-07T00:36:55.592,15238.0,0.0,0.0,0.0,0.0,0.0,5912.0,1788.0,16036.0,-481.0,985.0,idle
2026-10-07T00:36:55.643,15288.0,0.0,0.0,0.0,0.0,0.0,5844.0,1756.0,16240.0,-598.0,1030.0,idle
2026-10-07T00:36:55.692,15338.0,0.0,0.0,0.0,0.0,0.0,5904.0,1764.0,16256.0,-489.0,980.0,idle
2026-10-07T00:36:55.745,15388.0,0.0,0.0,0.0,0.0,0.0,5888.0,1828.0,16152.0,-534.0,1032.0,idle
2026-10-07T00:36:55.792,15438.0,0.0,0.0,0.0,0.0,0.0,5880.0,1712.0,16124.0,-515.0,1063.0,idle
2026-10-07T00:36:55.845,15488.0,0.0,0.0,0.0,0.0,0.0,5848.0,1756.0,16208.0,-491.0,1089.0,idle
2026-10-07T00:36:55.891,15538.0,0.0,0.0,0.0,0.0,0.0,5896.0,1728.0,16168.0,-485.0,1007.0,idle
2026-10-07T00:36:55.942,15588.0,0.0,0.0,0.0,0.0,0.0,5964.0,1764.0,16148.0,-462.0,1059.0,idle
2026-10-07T00:36:55.992,15638.0,0.0,0.0,0.0,0.0,0.0,5992.0,1832.0,16028.0,-525.0,1085.0,idle
2026-10-07T00:36:56.045,15688.0,0.0,0.0,0.0,0.0,0.0,5872.0,1712.0,16264.0,-538.0,980.0,idle
2026-10-07T00:36:56.092,15738.0,0.0,0.0,0.0,0.0,0.0,5776.0,1704.0,16204.0,-501.0,1059.0,idle
2026-10-07T00:36:56.143,15788.0,0.0,0.0,0.0,0.0,0.0,5812.0,1808.0,16236.0,-437.0,1015.0,idle
2026-10-07T00:36:56.192,15838.0,0.0,0.0,0.0,0.0,0.0,5820.0,1792.0,16208.0,-541.0,891.0,idle
2026-10-07T00:36:56.242,15888.0,0.0,0.0,0.0,0.0,0.0,5920.0,1692.0,16236.0,-452.0,1017.0,idle
2026-10-07T00:36:56.291,15938.0,0.0,0.0,0.0,0.0,0.0,5892.0,1720.0,16128.0,-440.0,1030.0,idle
2026-10-07T00:36:56.342,15988.0,0.0,0.0,0.0,0.0,0.0,5824.0,1856.0,16200.0,-465.0,1059.0,idle
2026-10-07T00:36:56.392,16038.0,0.0,0.0,0.0,0.0,0.0,5840.0,1732.0,16108.0,-505.0,1050.0,idle
2026-10-07T00:36:56.445,16088.0,0.0,0.0,0.0,0.0,0.0,5912.0,1724.0,16172.0,-394.0,884.0,idle
2026-10-07T00:36:56.492,16138.0,0.0,0.0,0.0,0.0,0.0,5952.0,1896.0,16028.0,-457.0,1045.0,idle
2026-10-07T00:36:56.545,16188.0,0.0,0.0,0.0,0.0,0.0,5940.0,1784.0,16004.0,-506.0,935.0,idle
2026-10-07T00:36:56.595,16238.0,0.0,0.0,0.0,0.0,0.0,5944.0,1780.0,16152.0,-556.0,1034.0,idle
2026-10-07T00:36:56.645,16288.0,0.0,0.0,0.0,0.0,0.0,5868.0,1596.0,16248.0,-472.0,1034.0,idle
2026-10-07T00:36:56.692,16338.0,0.0,0.0,0.0,0.0,0.0,5840.0,1812.0,15952.0,-403.0,1045.0,idle
2026-10-07T00:36:56.742,16388.0,0.0,0.0,0.0,0.0,0.0,5860.0,1936.0,16132.0,-472.0,919.0,idle
2026-10-07T00:36:56.792,16438.0,0.0,0.0,0.0,0.0,0.0,5828.0,1800.0,16104.0,-575.0,1122.0,idle
2026-10-07T00:36:56.842,16488.0,0.0,0.0,0.0,0.0,0.0,5916.0,1716.0,16164.0,-529.0,936.0,idle
2026-10-07T00:36:56.892,16538.0,0.0,0.0,0.0,0.0,0.0,6016.0,1704.0,16136.0,-461.0,937.0,idle
2026-10-07T00:36:56.942,16588.0,0.0,0.0,0.0,0.0,0.0,5808.0,1932.0,16152.0,-483.0,1043.0,idle
2026-10-07T00:36:56.995,16638.0,0.0,0.0,0.0,0.0,0.0,5860.0,1632.0,16064.0,-559.0,1032.0,idle
2026-10-07T00:36:57.045,16688.0,0.0,0.0,0.0,0.0,0.0,5844.0,1728.0,16148.0,-439.0,1057.0,idle
2026-10-07T00:36:57.091,16738.0,0.0,0.0,0.0,0.0,0.0,5864.0,1752.0,16136.0,-481.0,1005.0,idle
2026-10-07T00:36:57.143,16788.0,0.0,0.0,0.0,0.0,0.0,5784.0,1844.0,16004.0,-519.0,1024.0,idle
2026-10-07T00:36:57.192,16838.0,0.0,0.0,0.0,0.0,0.0,5872.0,1712.0,16064.0,-595.0,901.0,idle
2026-10-07T00:36:57.241,16888.0,0.0,0.0,0.0,0.0,0.0,5976.0,1768.0,16164.0,-500.0,986.0,idle
2026-10-07T00:36:57.296,16938.0,0.0,0.0,0.0,0.0,0.0,5804.0,1780.0,16312.0,-558.0,1052.0,idle
2026-10-07T00:36:57.342,16988.0,0.0,0.0,0.0,0.0,0.0,5776.0,1712.0,16132.0,-537.0,986.0,idle
2026-10-07T00:36:57.395,17038.0,0.0,0.0,0.0,0.0,0.0,5780.0,1656.0,16208.0,-480.0,986.0,idle
2026-10-07T00:36:57.442,17088.0,0.0,0.0,0.0,0.0,0.0,5816.0,1540.0,16180.0,-316.0,834.0,idle
2026-10-07T00:36:57.492,17138.0,0.0,0.0,0.0,0.0,0.0,6020.0,1812.0,16116.0,-373.0,882.0,idle
2026-10-07T00:36:57.542,17188.0,0.0,0.0,0.0,0.0,0.0,5992.0,1900.0,16116.0,-477.0,1079.0,idle
2026-10-07T00:36:57.595,17238.0,0.0,0.0,0.0,0.0,0.0,6052.0,1604.0,16064.0,-492.0,1007.0,idle
2026-10-07T00:36:57.642,17288.0,0.0,0.0,0.0,0.0,0.0,5860.0,1924.0,16136.0,-444.0,1060.0,idle
2026-10-07T00:36:57.692,17338.0,0.0,0.0,0.0,0.0,0.0,5780.0,1680.0,16300.0,-518.0,1007.0,idle
2026-10-07T00:36:57.742,17388.0,0.0,0.0,0.0,0.0,0.0,5880.0,1824.0,16072.0,-504.0,944.0,idle
2026-10-07T00:36:57.795,17438.0,0.0,0.0,0.0,0.0,0.0,6040.0,1808.0,16184.0,-429.0,995.0,idle
2026-10-07T00:36:57.842,17488.0,0.0,0.0,0.0,0.0,0.0,5856.0,1872.0,16072.0,-484.0,1128.0,idle
2026-10-07T00:36:57.891,17538.0,0.0,0.0,0.0,0.0,0.0,5760.0,1820.0,16104.0,-566.0,1045.0,idle
2026-10-07T00:36:57.942,17588.0,0.0,0.0,0.0,0.0,0.0,5896.0,1712.0,16148.0,-548.0,936.0,idle
2026-10-07T00:36:57.995,17638.0,0.0,0.0,0.0,0.0,0.0,5896.0,1752.0,16168.0,-538.0,1065.0,idle
2026-10-07T00:36:58.041,17688.0,0.0,0.0,0.0,0.0,0.0,5904.0,1720.0,16196.0,-497.0,1109.0,idle
2026-10-07T00:36:58.095,17738.0,0.0,0.0,0.0,0.0,0.0,5788.0,1816.0,16112.0,-477.0,1023.0,idle
2026-10-07T00:36:58.142,17788.0,0.0,0.0,0.0,0.0,0.0,5840.0,1676.0,16140.0,-544.0,954.0,idle
2026-10-07T00:36:58.193,17838.0,0.0,0.0,0.0,0.0,0.0,5884.0,1772.0,16080.0,-420.0,951.0,idle
2026-10-07T00:36:58.242,17888.0,0.0,0.0,0.0,0.0,0.0,5984.0,1760.0,16100.0,-432.0,1084.0,idle
2026-10-07T00:36:58.291,17938.0,0.0,0.0,0.0,0.0,0.0,5864.0,1836.0,16212.0,-512.0,1117.0,idle
2026-10-07T00:36:58.342,17988.0,0.0,0.0,0.0,0.0,0.0,5820.0,1684.0,16096.0,-558.0,976.0,idle
2026-10-07T00:36:58.392,18038.0,0.0,0.0,0.0,0.0,0.0,5864.0,1760.0,16080.0,-406.0,1041.0,idle
2026-10-07T00:36:58.442,18088.0,0.0,0.0,0.0,0.0,0.0,5808.0,1752.0,16116.0,-448.0,844.0,idle
2026-10-07T00:36:58.496,18138.0,0.0,0.0,0.0,0.0,0.0,5836.0,1684.0,16156.0,-484.0,997.0,idle
2026-10-07T00:36:58.542,18188.0,0.0,0.0,0.0,0.0,0.0,5900.0,1744.0,16140.0,-462.0,994.0,idle
2026-10-07T00:36:58.596,18238.0,0.0,0.0,0.0,0.0,0.0,5924.0,1756.0,16048.0,-436.0,1026.0,idle
2026-10-07T00:36:58.642,18288.0,0.0,0.0,0.0,0.0,0.0,5792.0,1828.0,16120.0,-465.0,1037.0,idle
2026-10-07T00:36:58.694,18338.0,0.0,0.0,0.0,0.0,0.0,5888.0,1804.0,16184.0,-500.0,989.0,idle
2026-10-07T00:36:58.741,18388.0,0.0,0.0,0.0,0.0,0.0,5916.0,1740.0,16120.0,-501.0,918.0,idle
2026-10-07T00:36:58.792,18438.0,0.0,0.0,0.0,0.0,0.0,5836.0,1744.0,16232.0,-468.0,1094.0,idle
2026-10-07T00:36:58.842,18488.0,0.0,0.0,0.0,0.0,0.0,5736.0,1876.0,16196.0,-506.0,976.0,idle
2026-10-07T00:36:58.895,18538.0,0.0,0.0,0.0,0.0,0.0,5876.0,1740.0,16208.0,-538.0,889.0,idle
2026-10-07T00:36:58.942,18588.0,0.0,0.0,0.0,0.0,0.0,5956.0,1748.0,16124.0,-467.0,911.0,idle
2026-10-07T00:36:58.992,18638.0,0.0,0.0,0.0,0.0,0.0,5964.0,1780.0,16280.0,-487.0,958.0,idle
2026-10-07T00:36:59.042,18688.0,0.0,0.0,0.0,0.0,0.0,5948.0,1852.0,16136.0,-507.0,1009.0,idle
2026-10-07T00:36:59.095,18738.0,0.0,0.0,0.0,0.0,0.0,5840.0,1788.0,16148.0,-580.0,984.0,idle
2026-10-07T00:36:59.142,18788.0,0.0,0.0,0.0,0.0,0.0,5832.0,1748.0,16152.0,-440.0,1095.0,idle
2026-10-07T00:36:59.195,18838.0,0.0,0.0,0.0,0.0,0.0,5808.0,1944.0,16204.0,-517.0,1025.0,idle
2026-10-07T00:36:59.242,18888.0,0.0,0.0,0.0,0.0,0.0,5956.0,1712.0,16116.0,-527.0,891.0,idle
2026-10-07T00:36:59.295,18938.0,0.0,0.0,0.0,0.0,0.0,5952.0,1680.0,16048.0,-456.0,972.0,idle
2026-10-07T00:36:59.342,18988.0,0.0,0.0,0.0,0.0,0.0,5888.0,1660.0,16264.0,-506.0,1008.0,idle
2026-10-07T00:36:59.392,19038.0,0.0,0.0,0.0,0.0,0.0,5832.0,1792.0,16136.0,-416.0,995.0,idle
2026-10-07T00:36:59.442,19088.0,0.0,0.0,0.0,0.0,0.0,5876.0,1792.0,16140.0,-460.0,966.0,idle
2026-10-07T00:36:59.495,19138.0,0.0,0.0,0.0,0.0,0.0,5908.0,1884.0,16028.0,-490.0,954.0,idle
2026-10-07T00:36:59.541,19188.0,0.0,0.0,0.0,0.0,0.0,5952.0,1808.0,16124.0,-506.0,1030.0,idle
2026-10-07T00:36:59.592,19238.0,0.0,0.0,0.0,0.0,0.0,5784.0,1712.0,16056.0,-522.0,1065.0,idle
2026-10-07T00:36:59.642,19288.0,0.0,0.0,0.0,0.0,0.0,5816.0,1620.0,16180.0,-477.0,992.0,idle
2026-10-07T00:36:59.696,19338.0,0.0,0.0,0.0,0.0,0.0,5764.0,1772.0,16140.0,-428.0,974.0,idle
2026-10-07T00:36:59.742,19388.0,0.0,0.0,0.0,0.0,0.0,5908.0,1736.0,16192.0,-419.0,802.0,idle
2026-10-07T00:36:59.792,19438.0,0.0,0.0,0.0,0.0,0.0,6016.0,1892.0,16176.0,-542.0,932.0,idle
2026-10-07T00:36:59.843,19488.0,0.0,0.0,0.0,0.0,0.0,6016.0,1652.0,16280.0,-523.0,1017.0,idle
2026-10-07T00:36:59.893,19538.0,0.0,0.0,0.0,0.0,0.0,5748.0,1732.0,16012.0,-475.0,1134.0,idle
2026-10-07T00:36:59.942,19588.0,0.0,0.0,0.0,0.0,0.0,5736.0,1828.0,16148.0,-488.0,1075.0,idle
2026-10-07T00:36:59.992,19638.0,0.0,0.0,0.0,0.0,0.0,5920.0,1788.0,16160.0,-535.0,910.0,idle
2026-10-07T00:37:00.043,19688.0,0.0,0.0,0.0,0.0,0.0,5928.0,1788.0,16156.0,-477.0,992.0,idle
2026-10-07T00:37:00.095,19738.0,0.0,0.0,0.0,0.0,0.0,5848.0,1704.0,16116.0,-496.0,1079.0,idle
2026-10-07T00:37:00.142,19788.0,0.0,0.0,0.0,0.0,0.0,5728.0,1776.0,16064.0,-460.0,1052.0,idle
2026-10-07T00:37:00.195,19838.0,0.0,0.0,0.0,0.0,0.0,5864.0,1764.0,16124.0,-511.0,864.0,idle
2026-10-07T00:37:00.243,19888.0,0.0,0.0,0.0,0.0,0.0,5924.0,1720.0,16012.0,-463.0,1082.0,idle
2026-10-07T00:37:00.292,19938.0,0.0,0.0,0.0,0.0,0.0,5840.0,1796.0,16148.0,-538.0,1066.0,idle
