timestamp,t1,t2,t3,t4,t5,ax,ay,az,gx,gy,gz,label
2026-10-07T00:35:49.446,1188.0,0.0,0.0,0.0,0.0,0.0,5496.0,1540.0,16352.0,-490.0,1033.0,idle
2026-10-07T00:35:49.485,1238.0,0.0,0.0,0.0,0.0,0.0,5388.0,1600.0,16212.0,-488.0,982.0,idle
2026-10-07T00:35:49.535,1288.0,0.0,0.0,0.0,0.0,0.0,5448.0,1572.0,16436.0,-498.0,908.0,idle
2026-10-07T00:35:49.585,1338.0,0.0,0.0,0.0,0.0,0.0,5512.0,1544.0,16316.0,-499.0,973.0,idle
2026-10-07T00:35:49.634,1388.0,0.0,0.0,0.0,0.0,0.0,5420.0,1516.0,16376.0,-563.0,985.0,idle
2026-10-07T00:35:49.685,1438.0,0.0,0.0,0.0,0.0,0.0,5436.0,1608.0,16392.0,-549.0,1094.0,idle
2026-10-07T00:35:49.735,1488.0,0.0,0.0,0.0,0.0,0.0,5268.0,1572.0,16376.0,-494.0,966.0,idle
2026-10-07T00:35:49.785,1538.0,0.0,0.0,0.0,0.0,0.0,5380.0,1552.0,16160.0,-433.0,800.0,idle
2026-10-07T00:35:49.835,1588.0,0.0,0.0,0.0,0.0,0.0,5584.0,1500.0,16392.0,-388.0,889.0,idle
2026-10-07T00:35:49.884,1638.0,0.0,0.0,0.0,0.0,0.0,5556.0,1524.0,16304.0,-369.0,971.0,idle
2026-10-07T00:35:49.938,1688.0,0.0,0.0,0.0,0.0,0.0,5592.0,1384.0,16272.0,-400.0,940.0,idle
2026-10-07T00:35:49.985,1738.0,0.0,0.0,0.0,0.0,0.0,5608.0,1692.0,16340.0,-455.0,882.0,idle
2026-10-07T00:35:50.035,1788.0,0.0,0.0,0.0,0.0,0.0,5564.0,1592.0,16416.0,-526.0,993.0,idle
2026-10-07T00:35:50.085,1838.0,0.0,0.0,0.0,0.0,0.0,5392.0,1640.0,16404.0,-564.0,1078.0,idle
2026-10-07T00:35:50.138,1888.0,0.0,0.0,0.0,0.0,0.0,5364.0,1364.0,16360.0,-462.0,860.0,idle
2026-10-07T00:35:50.185,1938.0,0.0,0.0,0.0,0.0,0.0,5556.0,1592.0,16288.0,-342.0,851.0,idle
2026-10-07T00:35:50.238,1988.0,0.0,0.0,0.0,0.0,0.0,5672.0,1700.0,16132.0,-456.0,968.0,idle
2026-10-07T00:35:50.286,2038.0,0.0,0.0,0.0,0.0,0.0,5584.0,1580.0,16196.0,-523.0,995.0,idle
2026-10-07T00:35:50.335,2088.0,0.0,0.0,0.0,0.0,0.0,5540.0,1532.0,16316.0,-472.0,1019.0,idle
2026-10-07T00:35:50.384,2138.0,0.0,0.0,0.0,0.0,0.0,5536.0,1512.0,16236.0,-496.0,1043.0,idle
2026-10-07T00:35:50.436,2188.0,0.0,0.0,0.0,0.0,0.0,5532.0,1644.0,16340.0,-495.0,1010.0,idle
2026-10-07T00:35:50.485,2238.0,0.0,0.0,0.0,0.0,0.0,5536.0,1600.0,16248.0,-487.0,1068.0,idle
2026-10-07T00:35:50.538,2288.0,0.0,0.0,0.0,0.0,0.0,5384.0,1608.0,16364.0,-571.0,1065.0,idle
2026-10-07T00:35:50.585,2338.0,0.0,0.0,0.0,0.0,0.0,5456.0,1488.0,16320.0,-529.0,909.0,idle
2026-10-07T00:35:50.638,2388.0,0.0,0.0,0.0,0.0,0.0,5552.0,1512.0,16296.0,-430.0,936.0,idle
2026-10-07T00:35:50.685,2438.0,0.0,0.0,0.0,0.0,0.0,5604.0,1524.0,16312.0,-467.0,978.0,idle
2026-10-07T00:35:50.737,2488.0,0.0,0.0,0.0,0.0,0.0,5568.0,1608.0,16280.0,-572.0,1024.0,idle
2026-10-07T00:35:50.785,2538.0,0.0,0.0,0.0,0.0,0.0,5392.0,1596.0,16292.0,-552.0,1085.0,idle
2026-10-07T00:35:50.835,2588.0,0.0,0.0,0.0,0.0,0.0,5412.0,1512.0,16388.0,-510.0,1019.0,idle
2026-10-07T00:35:50.885,2638.0,0.0,0.0,0.0,0.0,0.0,5424.0,1616.0,16356.0,-408.0,818.0,idle
2026-10-07T00:35:50.938,2688.0,0.0,0.0,0.0,0.0,0.0,5508.0,1608.0,16272.0,-436.0,942.0,idle
2026-10-07T00:35:50.985,2738.0,0.0,0.0,0.0,0.0,0.0,5456.0,1656.0,16232.0,-419.0,976.0,idle
2026-10-07T00:35:51.035,2788.0,0.0,0.0,0.0,0.0,0.0,5520.0,1560.0,16236.0,-480.0,971.0,idle
2026-10-07T00:35:51.085,2838.0,0.0,0.0,0.0,0.0,0.0,5532.0,1748.0,16312.0,-442.0,956.0,idle
2026-10-07T00:35:51.135,2888.0,0.0,0.0,0.0,0.0,0.0,5560.0,1624.0,16288.0,-482.0,996.0,idle
2026-10-07T00:35:51.184,2938.0,0.0,0.0,0.0,0.0,0.0,5552.0,1568.0,16276.0,-509.0,1063.0,idle
2026-10-07T00:35:51.235,2988.0,0.0,0.0,0.0,0.0,0.0,5496.0,1704.0,16368.0,-598.0,1029.0,idle
2026-10-07T00:35:51.288,3038.0,0.0,0.0,0.0,0.0,0.0,5452.0,1500.0,16396.0,-524.0,1085.0,idle
2026-10-07T00:35:51.336,3088.0,0.0,0.0,0.0,0.0,0.0,5428.0,1604.0,16320.0,-459.0,1021.0,idle
2026-10-07T00:35:51.384,3138.0,0.0,0.0,0.0,0.0,0.0,5536.0,1544.0,16380.0,-460.0,935.0,idle
2026-10-07T00:35:51.438,3188.0,0.0,0.0,0.0,0.0,0.0,5612.0,1680.0,16244.0,-488.0,1015.0,idle
2026-10-07T00:35:51.485,3238.0,0.0,0.0,0.0,0.0,0.0,5524.0,1616.0,16264.0,-546.0,1063.0,idle
2026-10-07T00:35:51.535,3288.0,0.0,0.0,0.0,0.0,0.0,5512.0,1532.0,16252.0,-465.0,919.0,idle
2026-10-07T00:35:51.584,3338.0,0.0,0.0,0.0,0.0,0.0,5576.0,1648.0,16312.0,-492.0,1023.0,idle
2026-10-07T00:35:51.635,3388.0,0.0,0.0,0.0,0.0,0.0,5448.0,1680.0,16468.0,-478.0,1086.0,idle
2026-10-07T00:35:51.685,3438.0,0.0,0.0,0.0,0.0,0.0,5464.0,1512.0,16276.0,-481.0,893.0,idle
2026-10-07T00:35:51.734,3488.0,0.0,0.0,0.0,0.0,0.0,5580.0,1508.0,16288.0,-380.0,918.0,idle
2026-10-07T00:35:51.788,3538.0,0.0,0.0,0.0,0.0,0.0,5476.0,1564.0,16104.0,-390.0,1073.0,idle
2026-10-07T00:35:51.835,3588.0,0.0,0.0,0.0,0.0,0.0,5532.0,1556.0,16256.0,-440.0,1041.0,idle
2026-10-07T00:35:51.885,3638.0,0.0,0.0,0.0,0.0,0.0,5420.0,1780.0,16404.0,-524.0,976.0,idle
2026-10-07T00:35:51.936,3688.0,0.0,0.0,0.0,0.0,0.0,5552.0,1564.0,16300.0,-513.0,1023.0,idle
2026-10-07T00:35:51.986,3738.0,0.0,0.0,0.0,0.0,0.0,5468.0,1592.0,16232.0,-521.0,971.0,idle
2026-10-07T00:35:52.038,3788.0,0.0,0.0,0.0,0.0,0.0,5364.0,1660.0,16272.0,-535.0,946.0,idle
2026-10-07T00:35:52.088,3838.0,0.0,0.0,0.0,0.0,0.0,5528.0,1544.0,16372.0,-502.0,865.0,idle
2026-10-07T00:35:52.135,3888.0,0.0,0.0,0.0,0.0,0.0,5532.0,1600.0,16272.0,-459.0,910.0,idle
2026-10-07T00:35:52.185,3938.0,0.0,0.0,0.0,0.0,0.0,5660.0,1536.0,16248.0,-404.0,883.0,idle
2026-10-07T00:35:52.235,3988.0,0.0,0.0,0.0,0.0,0.0,5584.0,1704.0,16180.0,-431.0,1105.0,idle
2026-10-07T00:35:52.285,4038.0,0.0,0.0,0.0,0.0,0.0,5520.0,1552.0,16172.0,-455.0,989.0,idle
2026-10-07T00:35:52.335,4088.0,0.0,0.0,0.0,0.0,0.0,5468.0,1644.0,16360.0,-482.0,935.0,idle
2026-10-07T00:35:52.388,4138.0,0.0,0.0,0.0,0.0,0.0,5472.0,1684.0,16344.0,-462.0,1053.0,idle
2026-10-07T00:35:52.435,4188.0,0.0,0.0,0.0,0.0,0.0,5444.0,1592.0,16204.0,-478.0,995.0,idle
2026-10-07T00:35:52.488,4238.0,0.0,0.0,0.0,0.0,0.0,5480.0,1712.0,16248.0,-527.0,803.0,idle
2026-10-07T00:35:52.535,4288.0,0.0,0.0,0.0,0.0,0.0,5688.0,1520.0,16232.0,-446.0,858.0,idle
2026-10-07T00:35:52.588,4338.0,0.0,0.0,0.0,0.0,0.0,5576.0,1672.0,16264.0,-395.0,984.0,idle
2026-10-07T00:35:52.635,4388.0,0.0,0.0,0.0,0.0,0.0,5644.0,1744.0,16280.0,-506.0,1008.0,idle
2026-10-07T00:35:52.687,4438.0,0.0,0.0,0.0,0.0,0.0,5588.0,1504.0,16328.0,-500.0,1004.0,idle
2026-10-07T00:35:52.736,4488.0,0.0,0.0,0.0,0.0,0.0,5600.0,1640.0,16312.0,-489.0,1003.0,idle
2026-10-07T00:35:52.785,4538.0,0.0,0.0,0.0,0.0,0.0,5536.0,1732.0,16248.0,-525.0,1041.0,idle
2026-10-07T00:35:52.835,4588.0,0.0,0.0,0.0,0.0,0.0,5548.0,1604.0,16272.0,-554.0,974.0,idle
2026-10-07T00:35:52.885,4638.0,0.0,0.0,0.0,0.0,0.0,5492.0,1608.0,16212.0,-458.0,979.0,idle
2026-10-07T00:35:52.935,4688.0,0.0,0.0,0.0,0.0,0.0,5620.0,1576.0,16348.0,-402.0,964.0,idle
2026-10-07T00:35:52.985,4738.0,0.0,0.0,0.0,0.0,0.0,5596.0,1728.0,16284.0,-471.0,1008.0,idle
2026-10-07T00:35:53.035,4788.0,0.0,0.0,0.0,0.0,0.0,5656.0,1672.0,16044.0,-523.0,1002.0,idle
2026-10-07T00:35:53.085,4838.0,0.0,0.0,0.0,0.0,0.0,5600.0,1616.0,16392.0,-607.0,1002.0,idle
2026-10-07T00:35:53.138,4888.0,0.0,0.0,0.0,0.0,0.0,5652.0,1532.0,16236.0,-571.0,1144.0,idle
2026-10-07T00:35:53.185,4938.0,0.0,0.0,0.0,0.0,0.0,5384.0,1620.0,16340.0,-544.0,1136.0,idle
2026-10-07T00:35:53.239,4988.0,0.0,0.0,0.0,0.0,0.0,5404.0,1712.0,16336.0,-550.0,871.0,idle
2026-10-07T00:35:53.285,5038.0,0.0,0.0,0.0,0.0,0.0,5548.0,1616.0,16324.0,-545.0,999.0,idle
2026-10-07T00:35:53.338,5088.0,0.0,0.0,0.0,0.0,0.0,5552.0,1660.0,16352.0,-498.0,996.0,idle
2026-10-07T00:35:53.387,5138.0,0.0,0.0,0.0,0.0,0.0,5556.0,1560.0,16228.0,-475.0,1068.0,idle
2026-10-07T00:35:53.438,5188.0,0.0,0.0,0.0,0.0,0.0,5336.0,1756.0,16276.0,-501.0,1027.0,idle
2026-10-07T00:35:53.486,5238.0,0.0,0.0,0.0,0.0,0.0,5660.0,1508.0,16248.0,-530.0,959.0,idle
2026-10-07T00:35:53.539,5288.0,0.0,0.0,0.0,0.0,0.0,5520.0,1676.0,16304.0,-520.0,1115.0,idle
2026-10-07T00:35:53.589,5338.0,0.0,0.0,0.0,0.0,0.0,5480.0,1568.0,16372.0,-521.0,1072.0,idle
2026-10-07T00:35:53.635,5388.0,0.0,0.0,0.0,0.0,0.0,5408.0,1712.0,16312.0,-493.0,931.0,idle
2026-10-07T00:35:53.688,5438.0,0.0,0.0,0.0,0.0,0.0,5524.0,1576.0,16432.0,-450.0,897.0,idle
2026-10-07T00:35:53.735,5488.0,0.0,0.0,0.0,0.0,0.0,5548.0,1604.0,16232.0,-428.0,958.0,idle
2026-10-07T00:35:53.788,5538.0,0.0,0.0,0.0,0.0,0.0,5596.0,1680.0,16256.0,-527.0,991.0,idle
2026-10-07T00:35:53.835,5588.0,0.0,0.0,0.0,0.0,0.0,5616.0,1516.0,16360.0,-487.0,922.0,idle
2026-10-07T00:35:53.886,5638.0,0.0,0.0,0.0,0.0,0.0,5584.0,1644.0,16212.0,-453.0,1089.0,idle
2026-10-07T00:35:53.937,5688.0,0.0,0.0,0.0,0.0,0.0,5416.0,1728.0,16388.0,-521.0,1146.0,idle
2026-10-07T00:35:53.989,5738.0,0.0,0.0,0.0,0.0,0.0,5484.0,1460.0,16312.0,-527.0,844.0,idle
2026-10-07T00:35:54.036,5788.0,0.0,0.0,0.0,0.0,0.0,5568.0,1540.0,16280.0,-367.0,995.0,idle
2026-10-07T00:35:54.088,5838.0,0.0,0.0,0.0,0.0,0.0,5580.0,1580.0,16132.0,-438.0,1118.0,idle
2026-10-07T00:35:54.135,5888.0,0.0,0.0,0.0,0.0,0.0,5516.0,1780.0,16220.0,-470.0,882.0,idle
2026-10-07T00:35:54.188,5938.0,0.0,0.0,0.0,0.0,0.0,5552.0,1604.0,16292.0,-556.0,935.0,idle
2026-10-07T00:35:54.235,5988.0,0.0,0.0,0.0,0.0,0.0,5552.0,1688.0,16244.0,-591.0,975.0,idle
2026-10-07T00:35:54.287,6038.0,0.0,0.0,0.0,0.0,0.0,5576.0,1612.0,16308.0,-521.0,1073.0,idle
2026-10-07T00:35:54.336,6088.0,0.0,0.0,0.0,0.0,0.0,5460.0,1468.0,16340.0,-469.0,1066.0,idle
2026-10-07T00:35:54.388,6138.0,0.0,0.0,0.0,0.0,0.0,5440.0,1708.0,16332.0,-471.0,965.0,idle
2026-10-07T00:35:54.435,6188.0,0.0,0.0,0.0,0.0,0.0,5600.0,1548.0,16392.0,-515.0,958.0,idle
2026-10-07T00:35:54.486,6238.0,0.0,0.0,0.0,0.0,0.0,5592.0,1632.0,16116.0,-430.0,874.0,idle
2026-10-07T00:35:54.537,6288.0,0.0,0.0,0.0,0.0,0.0,5628.0,1624.0,16308.0,-434.0,1003.0,idle
2026-10-07T00:35:54.589,6338.0,0.0,0.0,0.0,0.0,0.0,5600.0,1676.0,16336.0,-501.0,1014.0,idle
2026-10-07T00:35:54.634,6388.0,0.0,0.0,0.0,0.0,0.0,5580.0,1536.0,16308.0,-509.0,930.0,idle
2026-10-07T00:35:54.688,6438.0,0.0,0.0,0.0,0.0,0.0,5524.0,1636.0,16280.0,-487.0,1087.0,idle
2026-10-07T00:35:54.735,6488.0,0.0,0.0,0.0,0.0,0.0,5460.0,1732.0,16416.0,-486.0,984.0,idle
2026-10-07T00:35:54.785,6538.0,0.0,0.0,0.0,0.0,0.0,5552.0,1532.0,16340.0,-482.0,836.0,idle
2026-10-07T00:35:54.836,6588.0,0.0,0.0,0.0,0.0,0.0,5688.0,1724.0,16244.0,-452.0,875.0,idle
2026-10-07T00:35:54.888,6638.0,0.0,0.0,0.0,0.0,0.0,5668.0,1564.0,16240.0,-468.0,985.0,idle
2026-10-07T00:35:54.936,6688.0,0.0,0.0,0.0,0.0,0.0,5592.0,1824.0,16360.0,-597.0,962.0,idle
2026-10-07T00:35:54.987,6738.0,0.0,0.0,0.0,0.0,0.0,5696.0,1416.0,16280.0,-515.0,1009.0,idle
2026-10-07T00:35:55.034,6788.0,0.0,0.0,0.0,0.0,0.0,5532.0,1764.0,16236.0,-520.0,1100.0,idle
2026-10-07T00:35:55.087,6838.0,0.0,0.0,0.0,0.0,0.0,5624.0,1512.0,16188.0,-531.0,977.0,idle
2026-10-07T00:35:55.135,6888.0,0.0,0.0,0.0,0.0,0.0,5564.0,1648.0,16300.0,-587.0,941.0,idle
2026-10-07T00:35:55.186,6938.0,0.0,0.0,0.0,0.0,0.0,5580.0,1484.0,16400.0,-451.0,953.0,idle
2026-10-07T00:35:55.235,6988.0,0.0,0.0,0.0,0.0,0.0,5608.0,1692.0,16244.0,-410.0,951.0,idle
2026-10-07T00:35:55.285,7038.0,0.0,0.0,0.0,0.0,0.0,5768.0,1696.0,16160.0,-421.0,944.0,idle
2026-10-07T00:35:55.335,7088.0,0.0,0.0,0.0,0.0,0.0,5656.0,1612.0,16248.0,-574.0,1046.0,idle
2026-10-07T00:35:55.385,7138.0,0.0,0.0,0.0,0.0,0.0,5592.0,1596.0,16400.0,-568.0,1096.0,idle
2026-10-07T00:35:55.439,7188.0,0.0,0.0,0.0,0.0,0.0,5556.0,1512.0,16364.0,-513.0,1197.0,idle
2026-10-07T00:35:55.488,7238.0,0.0,0.0,0.0,0.0,0.0,5416.0,1676.0,16328.0,-443.0,1034.0,idle
2026-10-07T00:35:55.535,7288.0,0.0,0.0,0.0,0.0,0.0,5524.0,1680.0,16324.0,-536.0,869.0,idle
2026-10-07T00:35:55.585,7338.0,0.0,0.0,0.0,0.0,0.0,5664.0,1556.0,16256.0,-526.0,977.0,idle
2026-10-07T00:35:55.635,7388.0,0.0,0.0,0.0,0.0,0.0,5640.0,1592.0,16332.0,-408.0,1015.0,idle
2026-10-07T00:35:55.684,7438.0,0.0,0.0,0.0,0.0,0.0,5580.0,1716.0,16300.0,-480.0,1087.0,idle
2026-10-07T00:35:55.738,7488.0,0.0,0.0,0.0,0.0,0.0,5508.0,1588.0,16468.0,-485.0,1082.0,idle
2026-10-07T00:35:55.785,7538.0,0.0,0.0,0.0,0.0,0.0,5608.0,1664.0,16160.0,-526.0,935.0,idle
2026-10-07T00:35:55.835,7588.0,0.0,0.0,0.0,0.0,0.0,5628.0,1676.0,16320.0,-422.0,1039.0,idle
2026-10-07T00:35:55.885,7638.0,0.0,0.0,0.0,0.0,0.0,5556.0,1624.0,16204.0,-583.0,1006.0,idle
2026-10-07T00:35:55.935,7688.0,0.0,0.0,0.0,0.0,0.0,5540.0,1672.0,16324.0,-482.0,960.0,idle
2026-10-07T00:35:55.987,7738.0,0.0,0.0,0.0,0.0,0.0,5556.0,1624.0,16196.0,-409.0,1019.0,idle
2026-10-07T00:35:56.033,7788.0,0.0,0.0,0.0,0.0,0.0,5624.0,1732.0,16356.0,-441.0,961.0,idle
2026-10-07T00:35:56.084,7838.0,0.0,0.0,0.0,0.0,0.0,5612.0,1696.0,16336.0,-477.0,991.0,idle
2026-10-07T00:35:56.136,7888.0,0.0,0.0,0.0,0.0,0.0,5516.0,1724.0,16260.0,-537.0,1047.0,idle
2026-10-07T00:35:56.184,7938.0,0.0,0.0,0.0,0.0,0.0,5568.0,1536.0,16288.0,-433.0,1064.0,idle
2026-10-07T00:35:56.235,7988.0,0.0,0.0,0.0,0.0,0.0,5432.0,1740.0,16284.0,-460.0,965.0,idle
2026-10-07T00:35:56.287,8038.0,0.0,0.0,0.0,0.0,0.0,5524.0,1552.0,16516.0,-495.0,907.0,idle
2026-10-07T00:35:56.334,8088.0,0.0,0.0,0.0,0.0,0.0,5624.0,1700.0,16172.0,-402.0,915.0,idle
2026-10-07T00:35:56.387,8138.0,0.0,0.0,0.0,0.0,0.0,5712.0,1512.0,16264.0,-369.0,924.0,idle
2026-10-07T00:35:56.435,8188.0,0.0,0.0,0.0,0.0,0.0,5512.0,1832.0,16256.0,-491.0,1124.0,idle
2026-10-07T00:35:56.485,8238.0,0.0,0.0,0.0,0.0,0.0,5548.0,1668.0,16148.0,-550.0,1058.0,idle
2026-10-07T00:35:56.535,8288.0,0.0,0.0,0.0,0.0,0.0,5536.0,1672.0,16360.0,-541.0,982.0,idle
2026-10-07T00:35:56.585,8338.0,0.0,0.0,0.0,0.0,0.0,5528.0,1612.0,16148.0,-527.0,965.0,idle
2026-10-07T00:35:56.635,8388.0,0.0,0.0,0.0,0.0,0.0,5552.0,1560.0,16248.0,-507.0,1010.0,idle
2026-10-07T00:35:56.687,8438.0,0.0,0.0,0.0,0.0,0.0,5464.0,1640.0,16264.0,-534.0,978.0,idle
2026-10-07T00:35:56.735,8488.0,0.0,0.0,0.0,0.0,0.0,5508.0,1660.0,16440.0,-444.0,891.0,idle
2026-10-07T00:35:56.785,8538.0,0.0,0.0,0.0,0.0,0.0,5692.0,1608.0,16152.0,-484.0,928.0,idle
2026-10-07T00:35:56.833,8588.0,0.0,0.0,0.0,0.0,0.0,5596.0,1704.0,16248.0,-487.0,992.0,idle
2026-10-07T00:35:56.888,8638.0,0.0,0.0,0.0,0.0,0.0,5580.0,1616.0,16236.0,-488.0,1032.0,idle
2026-10-07T00:35:56.934,8688.0,0.0,0.0,0.0,0.0,0.0,5476.0,1752.0,16336.0,-551.0,968.0,idle
2026-10-07T00:35:56.988,8738.0,0.0,0.0,0.0,0.0,0.0,5616.0,1600.0,16180.0,-464.0,1056.0,idle
2026-10-07T00:35:57.037,8788.0,0.0,0.0,0.0,0.0,0.0,5432.0,1728.0,16284.0,-455.0,990.0,idle
2026-10-07T00:35:57.087,8838.0,0.0,0.0,0.0,0.0,0.0,5516.0,1512.0,16320.0,-541.0,740.0,idle
2026-10-07T00:35:57.134,8888.0,0.0,0.0,0.0,0.0,0.0,5748.0,1684.0,16216.0,-466.0,885.0,idle
2026-10-07T00:35:57.184,8938.0,0.0,0.0,0.0,0.0,0.0,5656.0,1692.0,16392.0,-420.0,1118.0,idle
2026-10-07T00:35:57.234,8988.0,0.0,0.0,0.0,0.0,0.0,5596.0,1744.0,16184.0,-501.0,1039.0,idle
2026-10-07T00:35:57.285,9038.0,0.0,0.0,0.0,0.0,0.0,5588.0,1648.0,16256.0,-527.0,1084.0,idle
2026-10-07T00:35:57.337,9088.0,0.0,0.0,0.0,0.0,0.0,5564.0,1704.0,16268.0,-560.0,957.0,idle
2026-10-07T00:35:57.385,9138.0,0.0,0.0,0.0,0.0,0.0,5620.0,1536.0,16256.0,-491.0,948.0,idle
2026-10-07T00:35:57.438,9188.0,0.0,0.0,0.0,0.0,0.0,5552.0,1708.0,16256.0,-444.0,977.0,idle
2026-10-07T00:35:57.484,9238.0,0.0,0.0,0.0,0.0,0.0,5620.0,1632.0,16168.0,-451.0,1032.0,idle
2026-10-07T00:35:57.538,9288.0,0.0,0.0,0.0,0.0,0.0,5656.0,1648.0,16176.0,-510.0,1036.0,idle
2026-10-07T00:35:57.585,9338.0,0.0,0.0,0.0,0.0,0.0,5512.0,1680.0,16308.0,-482.0,1004.0,idle
2026-10-07T00:35:57.635,9388.0,0.0,0.0,0.0,0.0,0.0,5700.0,1564.0,16228.0,-480.0,1015.0,idle
2026-10-07T00:35:57.684,9438.0,0.0,0.0,0.0,0.0,0.0,5452.0,1856.0,16352.0,-519.0,1143.0,idle
2026-10-07T00:35:57.737,9488.0,0.0,0.0,0.0,0.0,0.0,5624.0,1520.0,16204.0,-489.0,914.0,idle
2026-10-07T00:35:57.784,9538.0,0.0,0.0,0.0,0.0,0.0,5568.0,1724.0,16412.0,-452.0,1020.0,idle
2026-10-07T00:35:57.834,9588.0,0.0,0.0,0.0,0.0,0.0,5580.0,1660.0,16348.0,-587.0,1053.0,idle
2026-10-07T00:35:57.884,9638.0,0.0,0.0,0.0,0.0,0.0,5576.0,1600.0,16224.0,-498.0,956.0,idle
2026-10-07T00:35:57.937,9688.0,0.0,0.0,0.0,0.0,0.0,5660.0,1528.0,16300.0,-467.0,962.0,idle
2026-10-07T00:35:57.984,9738.0,0.0,0.0,0.0,0.0,0.0,5536.0,1780.0,16352.0,-445.0,1059.0,idle
2026-10-07T00:35:58.039,9788.0,0.0,0.0,0.0,0.0,0.0,5520.0,1700.0,16152.0,-595.0,1027.0,idle
2026-10-07T00:35:58.084,9838.0,0.0,0.0,0.0,0.0,0.0,5600.0,1708.0,16228.0,-458.0,908.0,idle
2026-10-07T00:35:58.137,9888.0,0.0,0.0,0.0,0.0,0.0,5592.0,1604.0,16304.0,-525.0,1069.0,idle
2026-10-07T00:35:58.184,9938.0,0.0,0.0,0.0,0.0,0.0,5540.0,1728.0,16312.0,-507.0,1059.0,idle
2026-10-07T00:35:58.234,9988.0,0.0,0.0,0.0,0.0,0.0,5484.0,1592.0,16392.0,-574.0,1019.0,idle
2026-10-07T00:35:58.284,10038.0,0.0,0.0,0.0,0.0,0.0,5620.0,1668.0,16252.0,-547.0,940.0,idle
2026-10-07T00:35:58.334,10088.0,0.0,0.0,0.0,0.0,0.0,5660.0,1580.0,16292.0,-472.0,922.0,idle
2026-10-07T00:35:58.385,10138.0,0.0,0.0,0.0,0.0,0.0,5660.0,1680.0,16236.0,-475.0,1083.0,idle
2026-10-07T00:35:58.433,10188.0,0.0,0.0,0.0,0.0,0.0,5560.0,1640.0,16228.0,-478.0,963.0,idle
2026-10-07T00:35:58.484,10238.0,0.0,0.0,0.0,0.0,0.0,5608.0,1708.0,16456.0,-506.0,1036.0,idle
2026-10-07T00:35:58.538,10288.0,0.0,0.0,0.0,0.0,0.0,5560.0,1636.0,16188.0,-475.0,1021.0,idle
2026-10-07T00:35:58.584,10338.0,0.0,0.0,0.0,0.0,0.0,5548.0,1668.0,16240.0,-477.0,1038.0,idle
2026-10-07T00:35:58.638,10388.0,0.0,0.0,0.0,0.0,0.0,5520.0,1688.0,16332.0,-467.0,897.0,idle
2026-10-07T00:35:58.687,10438.0,0.0,0.0,0.0,0.0,0.0,5536.0,1616.0,16208.0,-547.0,985.0,idle
2026-10-07T00:35:58.734,10488.0,0.0,0.0,0.0,0.0,0.0,5532.0,1584.0,16208.0,-447.0,982.0,idle
2026-10-07T00:35:58.787,10538.0,0.0,0.0,0.0,0.0,0.0,5616.0,1636.0,16308.0,-462.0,1020.0,idle
2026-10-07T00:35:58.835,10588.0,0.0,0.0,0.0,0.0,0.0,5540.0,1748.0,16288.0,-459.0,1082.0,idle
2026-10-07T00:35:58.884,10638.0,0.0,0.0,0.0,0.0,0.0,5572.0,1720.0,16348.0,-515.0,947.0,idle
2026-10-07T00:35:58.934,10688.0,0.0,0.0,0.0,0.0,0.0,5632.0,1596.0,16352.0,-465.0,888.0,idle
2026-10-07T00:35:58.985,10738.0,0.0,0.0,0.0,0.0,0.0,5564.0,1776.0,16264.0,-483.0,930.0,idle
2026-10-07T00:35:59.034,10788.0,0.0,0.0,0.0,0.0,0.0,5624.0,1628.0,16396.0,-528.0,1045.0,idle
2026-10-07T00:35:59.084,10838.0,0.0,0.0,0.0,0.0,0.0,5516.0,1708.0,16232.0,-515.0,1016.0,idle
2026-10-07T00:35:59.135,10888.0,0.0,0.0,0.0,0.0,0.0,5656.0,1692.0,16196.0,-461.0,974.0,idle
2026-10-07T00:35:59.185,10938.0,0.0,0.0,0.0,0.0,0.0,5728.0,1632.0,16272.0,-518.0,1034.0,idle
2026-10-07T00:35:59.233,10988.0,0.0,0.0,0.0,0.0,0.0,5604.0,1632.0,16276.0,-501.0,1026.0,idle
2026-10-07T00:35:59.288,11038.0,0.0,0.0,0.0,0.0,0.0,5636.0,1564.0,16244.0,-485.0,1042.0,idle
2026-10-07T00:35:59.338,11088.0,0.0,0.0,0.0,0.0,0.0,5544.0,1672.0,16204.0,-449.0,1092.0,idle
2026-10-07T00:35:59.384,11138.0,0.0,0.0,0.0,0.0,0.0,5424.0,1716.0,16208.0,-533.0,1004.0,idle
2026-10-07T00:35:59.438,11188.0,0.0,0.0,0.0,0.0,0.0,5692.0,1724.0,16184.0,-519.0,808.0,idle
2026-10-07T00:35:59.487,11238.0,0.0,0.0,0.0,0.0,0.0,5668.0,1636.0,16272.0,-556.0,965.0,idle
2026-10-07T00:35:59.535,11288.0,0.0,0.0,0.0,0.0,0.0,5608.0,1632.0,16224.0,-493.0,1071.0,idle
2026-10-07T00:35:59.588,11338.0,0.0,0.0,0.0,0.0,0.0,5544.0,1716.0,16380.0,-555.0,1016.0,idle
2026-10-07T00:35:59.638,11388.0,0.0,0.0,0.0,0.0,0.0,5488.0,1524.0,16312.0,-479.0,1103.0,idle
2026-10-07T00:35:59.684,11438.0,0.0,0.0,0.0,0.0,0.0,5524.0,1672.0,16268.0,-534.0,950.0,idle
2026-10-07T00:35:59.738,11488.0,0.0,0.0,0.0,0.0,0.0,5576.0,1556.0,16244.0,-404.0,993.0,idle
2026-10-07T00:35:59.785,11538.0,0.0,0.0,0.0,0.0,0.0,5468.0,1784.0,16252.0,-506.0,932.0,idle
2026-10-07T00:35:59.834,11588.0,0.0,0.0,0.0,0.0,0.0,5636.0,1600.0,16212.0,-386.0,924.0,idle
2026-10-07T00:35:59.887,11638.0,0.0,0.0,0.0,0.0,0.0,5612.0,1732.0,16280.0,-483.0,981.0,idle
2026-10-07T00:35:59.934,11688.0,0.0,0.0,0.0,0.0,0.0,5584.0,1564.0,16316.0,-434.0,968.0,idle
2026-10-07T00:35:59.984,11738.0,0.0,0.0,0.0,0.0,0.0,5644.0,1740.0,16328.0,-361.0,884.0,idle
2026-10-07T00:36:00.034,11788.0,0.0,0.0,0.0,0.0,0.0,5572.0,1856.0,16184.0,-465.0,937.0,idle
2026-10-07T00:36:00.083,11838.0,0.0,0.0,0.0,0.0,0.0,5636.0,1608.0,16200.0,-505.0,993.0,idle
2026-10-07T00:36:00.134,11888.0,0.0,0.0,0.0,0.0,0.0,5736.0,1764.0,16244.0,-535.0,1022.0,idle
2026-10-07T00:36:00.185,11938.0,0.0,0.0,0.0,0.0,0.0,5516.0,1656.0,16216.0,-456.0,986.0,idle
2026-10-07T00:36:00.234,11988.0,0.0,0.0,0.0,0.0,0.0,5668.0,1612.0,16176.0,-442.0,822.0,idle
2026-10-07T00:36:00.284,12038.0,0.0,0.0,0.0,0.0,0.0,5780.0,1704.0,16300.0,-474.0,998.0,idle
2026-10-07T00:36:00.337,12088.0,0.0,0.0,0.0,0.0,0.0,5736.0,1640.0,16236.0,-505.0,1035.0,idle
2026-10-07T00:36:00.385,12138.0,0.0,0.0,0.0,0.0,0.0,5580.0,1648.0,16280.0,-521.0,1078.0,idle
2026-10-07T00:36:00.434,12188.0,0.0,0.0,0.0,0.0,0.0,5536.0,1776.0,16156.0,-555.0,1095.0,idle
2026-10-07T00:36:00.485,12238.0,0.0,0.0,0.0,0.0,0.0,5716.0,1580.0,16136.0,-563.0,1034.0,idle
2026-10-07T00:36:00.534,12288.0,0.0,0.0,0.0,0.0,0.0,5536.0,1704.0,16244.0,-478.0,945.0,idle
2026-10-07T00:36:00.584,12338.0,0.0,0.0,0.0,0.0,0.0,5624.0,1640.0,16328.0,-477.0,963.0,idle
2026-10-07T00:36:00.633,12388.0,0.0,0.0,0.0,0.0,0.0,5636.0,1716.0,16356.0,-495.0,1033.0,idle
2026-10-07T00:36:00.684,12438.0,0.0,0.0,0.0,0.0,0.0,5584.0,1788.0,16276.0,-551.0,959.0,idle
2026-10-07T00:36:00.734,12488.0,0.0,0.0,0.0,0.0,0.0,5720.0,1564.0,16292.0,-567.0,922.0,idle
2026-10-07T00:36:00.784,12538.0,0.0,0.0,0.0,0.0,0.0,5704.0,1608.0,16152.0,-482.0,993.0,idle
2026-10-07T00:36:00.834,12588.0,0.0,0.0,0.0,0.0,0.0,5592.0,1672.0,16168.0,-508.0,1077.0,idle
2026-10-07T00:36:00.884,12638.0,0.0,0.0,0.0,0.0,0.0,5760.0,1608.0,16144.0,-479.0,941.0,idle
2026-10-07T00:36:00.938,12688.0,0.0,0.0,0.0,0.0,0.0,5692.0,1752.0,16268.0,-488.0,1004.0,idle
2026-10-07T00:36:00.985,12738.0,0.0,0.0,0.0,0.0,0.0,5596.0,1700.0,16252.0,-657.0,1164.0,idle
2026-10-07T00:36:01.038,12788.0,0.0,0.0,0.0,0.0,0.0,5636.0,1684.0,16172.0,-664.0,1030.0,idle
2026-10-07T00:36:01.087,12838.0,0.0,0.0,0.0,0.0,0.0,5652.0,1464.0,16236.0,-509.0,1028.0,idle
2026-10-07T00:36:01.138,12888.0,0.0,0.0,0.0,0.0,0.0,5544.0,1808.0,16292.0,-514.0,1162.0,idle
2026-10-07T00:36:01.185,12938.0,0.0,0.0,0.0,0.0,0.0,5540.0,1716.0,16388.0,-603.0,1190.0,idle
2026-10-07T00:36:01.235,12988.0,0.0,0.0,0.0,0.0,0.0,5552.0,1656.0,16244.0,-599.0,1228.0,idle
2026-10-07T00:36:01.288,13038.0,0.0,0.0,0.0,0.0,0.0,5376.0,1552.0,16332.0,-547.0,1126.0,idle
2026-10-07T00:36:01.334,13088.0,0.0,0.0,0.0,0.0,0.0,5528.0,1600.0,16436.0,-626.0,1077.0,idle
2026-10-07T00:36:01.388,13138.0,0.0,0.0,0.0,0.0,0.0,5388.0,1376.0,16096.0,-487.0,1283.0,idle
2026-10-07T00:36:01.437,13188.0,0.0,0.0,0.0,0.0,0.0,5172.0,1644.0,16516.0,-431.0,962.0,idle
2026-10-07T00:36:01.484,13238.0,0.0,0.0,0.0,0.0,0.0,5672.0,1796.0,16248.0,-547.0,580.0,idle
2026-10-07T00:36:01.534,13288.0,0.0,0.0,0.0,0.0,0.0,5944.0,1492.0,16016.0,-598.0,1011.0,idle
2026-10-07T00:36:01.585,13338.0,0.0,0.0,0.0,0.0,0.0,5576.0,1620.0,16500.0,-705.0,1360.0,idle
2026-10-07T00:36:01.637,13388.0,0.0,0.0,0.0,0.0,0.0,5320.0,1300.0,16228.0,-444.0,1044.0,idle
2026-10-07T00:36:01.685,13438.0,0.0,0.0,0.0,0.0,0.0,5316.0,1672.0,16308.0,-301.0,995.0,idle
2026-10-07T00:36:01.737,13488.0,0.0,0.0,0.0,0.0,0.0,5388.0,1756.0,16368.0,-483.0,798.0,idle
2026-10-07T00:36:01.784,13538.0,0.0,0.0,0.0,0.0,0.0,5524.0,1576.0,16296.0,-607.0,887.0,idle
2026-10-07T00:36:01.838,13588.0,0.0,0.0,0.0,0.0,0.0,5376.0,1264.0,16348.0,-383.0,992.0,idle
2026-10-07T00:36:01.884,13638.0,0.0,0.0,0.0,0.0,0.0,5340.0,1676.0,16324.0,-257.0,612.0,idle
2026-10-07T00:36:01.935,13688.0,0.0,0.0,0.0,0.0,0.0,5740.0,1608.0,16060.0,-347.0,690.0,idle
2026-10-07T00:36:01.984,13738.0,0.0,0.0,0.0,0.0,0.0,5660.0,1628.0,16256.0,-336.0,920.0,idle
2026-10-07T00:36:02.037,13788.0,0.0,0.0,0.0,0.0,0.0,5628.0,1688.0,16344.0,-424.0,864.0,idle
2026-10-07T00:36:02.084,13838.0,0.0,0.0,0.0,0.0,0.0,5540.0,1552.0,16156.0,-243.0,980.0,idle
2026-10-07T00:36:02.134,13888.0,0.0,0.0,0.0,0.0,0.0,5464.0,1780.0,16408.0,-323.0,858.0,idle
2026-10-07T00:36:02.184,13938.0,0.0,0.0,0.0,0.0,0.0,5652.0,1772.0,16272.0,-284.0,728.0,idle
2026-10-07T00:36:02.234,13988.0,0.0,0.0,0.0,0.0,0.0,5764.0,1896.0,16108.0,-324.0,938.0,idle
2026-10-07T00:36:02.284,14038.0,0.0,0.0,0.0,0.0,0.0,5688.0,1996.0,16236.0,-441.0,986.0,idle
2026-10-07T00:36:02.334,14088.0,0.0,0.0,0.0,0.0,0.0,5516.0,1772.0,16180.0,-467.0,946.0,idle
2026-10-07T00:36:02.384,14138.0,0.0,0.0,0.0,0.0,0.0,5536.0,1756.0,16364.0,-550.0,875.0,idle
2026-10-07T00:36:02.434,14188.0,0.0,0.0,0.0,0.0,0.0,5648.0,1772.0,16252.0,-522.0,920.0,idle
2026-10-07T00:36:02.484,14238.0,0.0,0.0,0.0,0.0,0.0,5812.0,1788.0,16304.0,-576.0,1100.0,idle
2026-10-07T00:36:02.533,14288.0,0.0,0.0,0.0,0.0,0.0,5692.0,1692.0,16248.0,-512.0,1041.0,idle
2026-10-07T00:36:02.584,14338.0,0.0,0.0,0.0,0.0,0.0,5516.0,1864.0,16272.0,-536.0,1012.0,idle
2026-10-07T00:36:02.638,14388.0,0.0,0.0,0.0,0.0,0.0,5632.0,1632.0,16320.0,-466.0,984.0,idle
2026-10-07T00:36:02.688,14438.0,0.0,0.0,0.0,0.0,0.0,5592.0,1804.0,16280.0,-448.0,1051.0,idle
2026-10-07T00:36:02.736,14488.0,0.0,0.0,0.0,0.0,0.0,5656.0,1768.0,16352.0,-452.0,909.0,idle
2026-10-07T00:36:02.784,14538.0,0.0,0.0,0.0,0.0,0.0,5612.0,1796.0,16180.0,-514.0,990.0,idle
2026-10-07T00:36:02.838,14588.0,0.0,0.0,0.0,0.0,0.0,5620.0,1816.0,16280.0,-545.0,1010.0,idle
2026-10-07T00:36:02.884,14638.0,0.0,0.0,0.0,0.0,0.0,5692.0,1632.0,16344.0,-522.0,955.0,idle
2026-10-07T00:36:02.938,14688.0,0.0,0.0,0.0,0.0,0.0,5532.0,1852.0,16344.0,-475.0,952.0,idle
2026-10-07T00:36:02.984,14738.0,0.0,0.0,0.0,0.0,0.0,5624.0,1672.0,16276.0,-520.0,848.0,idle
2026-10-07T00:36:03.037,14788.0,0.0,0.0,0.0,0.0,0.0,5680.0,1748.0,16248.0,-447.0,884.0,idle
2026-10-07T00:36:03.084,14838.0,0.0,0.0,0.0,0.0,0.0,5828.0,1840.0,16124.0,-469.0,857.0,idle
2026-10-07T00:36:03.139,14888.0,0.0,0.0,0.0,0.0,0.0,5776.0,1796.0,16264.0,-560.0,1104.0,idle
2026-10-07T00:36:03.187,14938.0,0.0,0.0,0.0,0.0,0.0,5660.0,1720.0,16176.0,-473.0,1002.0,idle
2026-10-07T00:36:03.234,14988.0,0.0,0.0,0.0,0.0,0.0,5552.0,1904.0,16240.0,-531.0,942.0,idle
2026-10-07T00:36:03.287,15038.0,0.0,0.0,0.0,0.0,0.0,5684.0,1704.0,16400.0,-595.0,947.0,idle
2026-10-07T00:36:03.338,15088.0,0.0,0.0,0.0,0.0,0.0,5736.0,1748.0,16144.0,-660.0,927.0,idle
2026-10-07T00:36:03.385,15138.0,0.0,0.0,0.0,0.0,0.0,5964.0,2016.0,16196.0,-1072.0,729.0,idle
2026-10-07T00:36:03.434,15188.0,0.0,0.0,0.0,0.0,0.0,5732.0,1832.0,16400.0,-756.0,1010.0,idle
2026-10-07T00:36:03.484,15238.0,0.0,0.0,0.0,0.0,0.0,5588.0,1664.0,16128.0,-532.0,1138.0,idle
2026-10-07T00:36:03.534,15288.0,0.0,0.0,0.0,0.0,0.0,5644.0,1688.0,16060.0,-561.0,876.0,idle
2026-10-07T00:36:03.584,15338.0,0.0,0.0,0.0,0.0,0.0,5680.0,1640.0,16240.0,-490.0,908.0,idle
2026-10-07T00:36:03.635,15388.0,0.0,0.0,0.0,0.0,0.0,5692.0,1800.0,16212.0,-611.0,1007.0,idle
2026-10-07T00:36:03.684,15438.0,0.0,0.0,0.0,0.0,0.0,5792.0,1500.0,16176.0,-538.0,1036.0,idle
2026-10-07T00:36:03.734,15488.0,0.0,0.0,0.0,0.0,0.0,5592.0,1756.0,16404.0,-534.0,1147.0,idle
2026-10-07T00:36:03.787,15538.0,0.0,0.0,0.0,0.0,0.0,5584.0,1528.0,16320.0,-401.0,1003.0,idle
2026-10-07T00:36:03.834,15588.0,0.0,0.0,0.0,0.0,0.0,5784.0,1704.0,16144.0,-463.0,925.0,idle
2026-10-07T00:36:03.887,15638.0,0.0,0.0,0.0,0.0,0.0,5780.0,1684.0,16216.0,-495.0,1049.0,idle
2026-10-07T00:36:03.934,15688.0,0.0,0.0,0.0,0.0,0.0,5716.0,1616.0,16136.0,-517.0,1135.0,idle
2026-10-07T00:36:03.985,15738.0,0.0,0.0,0.0,0.0,0.0,5544.0,1700.0,16300.0,-441.0,1073.0,idle
2026-10-07T00:36:04.034,15788.0,0.0,0.0,0.0,0.0,0.0,5508.0,1560.0,16364.0,-413.0,864.0,idle
2026-10-07T00:36:04.087,15838.0,0.0,0.0,0.0,0.0,0.0,5700.0,1704.0,16256.0,-379.0,875.0,idle
2026-10-07T00:36:04.135,15888.0,0.0,0.0,0.0,0.0,0.0,5916.0,1792.0,16104.0,-477.0,857.0,idle
2026-10-07T00:36:04.185,15938.0,0.0,0.0,0.0,0.0,0.0,5768.0,1720.0,16032.0,-432.0,1267.0,idle
2026-10-07T00:36:04.234,15988.0,0.0,0.0,0.0,0.0,0.0,5568.0,1924.0,16404.0,-574.0,1040.0,idle
2026-10-07T00:36:04.287,16038.0,0.0,0.0,0.0,0.0,0.0,5652.0,1544.0,16164.0,-686.0,1082.0,idle
2026-10-07T00:36:04.334,16088.0,0.0,0.0,0.0,0.0,0.0,5456.0,1592.0,16268.0,-557.0,1081.0,idle
2026-10-07T00:36:04.388,16138.0,0.0,0.0,0.0,0.0,0.0,5544.0,1572.0,16384.0,-432.0,859.0,idle
2026-10-07T00:36:04.438,16188.0,0.0,0.0,0.0,0.0,0.0,5812.0,1800.0,16156.0,-404.0,965.0,idle
2026-10-07T00:36:04.488,16238.0,0.0,0.0,0.0,0.0,0.0,5720.0,1792.0,16264.0,-497.0,1103.0,idle
2026-10-07T00:36:04.535,16288.0,0.0,0.0,0.0,0.0,0.0,5656.0,1636.0,16204.0,-523.0,1013.0,idle
2026-10-07T00:36:04.584,16338.0,0.0,0.0,0.0,0.0,0.0,5556.0,1644.0,16240.0,-568.0,949.0,idle
2026-10-07T00:36:04.634,16388.0,0.0,0.0,0.0,0.0,0.0,5560.0,1556.0,16352.0,-509.0,1091.0,idle
2026-10-07T00:36:04.684,16438.0,0.0,0.0,0.0,0.0,0.0,5668.0,1644.0,16228.0,-438.0,1003.0,idle
2026-10-07T00:36:04.734,16488.0,0.0,0.0,0.0,0.0,0.0,5572.0,1768.0,16144.0,-440.0,958.0,idle
2026-10-07T00:36:04.785,16538.0,0.0,0.0,0.0,0.0,0.0,5584.0,1660.0,16320.0,-469.0,797.0,idle
2026-10-07T00:36:04.837,16588.0,0.0,0.0,0.0,0.0,0.0,5748.0,1620.0,16132.0,-547.0,965.0,idle
2026-10-07T00:36:04.884,16638.0,0.0,0.0,0.0,0.0,0.0,5728.0,1636.0,16228.0,-398.0,972.0,idle
2026-10-07T00:36:04.937,16688.0,0.0,0.0,0.0,0.0,0.0,5580.0,1784.0,16236.0,-434.0,921.0,idle
2026-10-07T00:36:04.985,16738.0,0.0,0.0,0.0,0.0,0.0,5716.0,1712.0,16336.0,-497.0,957.0,idle
2026-10-07T00:36:05.034,16788.0,0.0,0.0,0.0,0.0,0.0,5688.0,1720.0,16264.0,-532.0,1014.0,idle
2026-10-07T00:36:05.084,16838.0,0.0,0.0,0.0,0.0,0.0,5740.0,1584.0,16332.0,-476.0,1028.0,idle
2026-10-07T00:36:05.134,16888.0,0.0,0.0,0.0,0.0,0.0,5584.0,1744.0,16344.0,-498.0,1117.0,idle
2026-10-07T00:36:05.184,16938.0,0.0,0.0,0.0,0.0,0.0,5548.0,1704.0,16244.0,-429.0,937.0,idle
2026-10-07T00:36:05.237,16988.0,0.0,0.0,0.0,0.0,0.0,5716.0,1660.0,16296.0,-423.0,871.0,idle
2026-10-07T00:36:05.284,17038.0,0.0,0.0,0.0,0.0,0.0,5824.0,1796.0,16192.0,-456.0,1003.0,idle
2026-10-07T00:36:05.334,17088.0,0.0,0.0,0.0,0.0,0.0,5768.0,1636.0,16180.0,-514.0,1073.0,idle
2026-10-07T00:36:05.384,17138.0,0.0,0.0,0.0,0.0,0.0,5620.0,1744.0,16220.0,-491.0,1024.0,idle
2026-10-07T00:36:05.435,17188.0,0.0,0.0,0.0,0.0,0.0,5660.0,1524.0,16224.0,-514.0,836.0,idle
2026-10-07T00:36:05.484,17238.0,0.0,0.0,0.0,0.0,0.0,5724.0,1852.0,16304.0,-401.0,1052.0,idle
2026-10-07T00:36:05.538,17288.0,0.0,0.0,0.0,0.0,0.0,5656.0,1804.0,16224.0,-547.0,1038.0,idle
2026-10-07T00:36:05.585,17338.0,0.0,0.0,0.0,0.0,0.0,5636.0,1888.0,16168.0,-550.0,831.0,idle
2026-10-07T00:36:05.634,17388.0,0.0,0.0,0.0,0.0,0.0,5760.0,1636.0,16192.0,-499.0,986.0,idle
2026-10-07T00:36:05.684,17438.0,0.0,0.0,0.0,0.0,0.0,5688.0,1608.0,16196.0,-457.0,953.0,idle
2026-10-07T00:36:05.737,17488.0,0.0,0.0,0.0,0.0,0.0,5700.0,1804.0,16168.0,-464.0,931.0,idle
2026-10-07T00:36:05.783,17538.0,0.0,0.0,0.0,0.0,0.0,5800.0,1684.0,16200.0,-543.0,1002.0,idle
2026-10-07T00:36:05.834,17588.0,0.0,0.0,0.0,0.0,0.0,5716.0,1816.0,16220.0,-527.0,1039.0,idle
2026-10-07T00:36:05.884,17638.0,0.0,0.0,0.0,0.0,0.0,5736.0,1508.0,16164.0,-524.0,976.0,idle
2026-10-07T00:36:05.934,17688.0,0.0,0.0,0.0,0.0,0.0,5644.0,1796.0,16216.0,-515.0,973.0,idle
2026-10-07T00:36:05.985,17738.0,0.0,0.0,0.0,0.0,0.0,5776.0,1544.0,16228.0,-544.0,1006.0,idle
2026-10-07T00:36:06.037,17788.0,0.0,0.0,0.0,0.0,0.0,5608.0,1620.0,16200.0,-417.0,1010.0,idle
2026-10-07T00:36:06.084,17838.0,0.0,0.0,0.0,0.0,0.0,5676.0,1584.0,16288.0,-431.0,909.0,idle
2026-10-07T00:36:06.137,17888.0,0.0,0.0,0.0,0.0,0.0,5704.0,1800.0,16260.0,-392.0,935.0,idle
2026-10-07T00:36:06.184,17938.0,0.0,0.0,0.0,0.0,0.0,5812.0,1784.0,16172.0,-479.0,761.0,idle
2026-10-07T00:36:06.238,17988.0,0.0,0.0,0.0,0.0,0.0,5868.0,1776.0,16116.0,-495.0,1143.0,idle
2026-10-07T00:36:06.287,18038.0,0.0,0.0,0.0,0.0,0.0,5704.0,1692.0,16140.0,-540.0,1192.0,idle
2026-10-07T00:36:06.338,18088.0,0.0,0.0,0.0,0.0,0.0,5620.0,1648.0,16316.0,-501.0,966.0,idle
2026-10-07T00:36:06.385,18138.0,0.0,0.0,0.0,0.0,0.0,5728.0,1684.0,16144.0,-491.0,978.0,idle
2026-10-07T00:36:06.437,18188.0,0.0,0.0,0.0,0.0,0.0,5864.0,1780.0,16220.0,-442.0,990.0,idle
2026-10-07T00:36:06.485,18238.0,0.0,0.0,0.0,0.0,0.0,5808.0,1796.0,16176.0,-522.0,1114.0,idle
2026-10-07T00:36:06.538,18288.0,0.0,0.0,0.0,0.0,0.0,5664.0,1764.0,16240.0,-507.0,1070.0,idle
2026-10-07T00:36:06.585,18338.0,0.0,0.0,0.0,0.0,0.0,5732.0,1660.0,16228.0,-540.0,870.0,idle
2026-10-07T00:36:06.634,18388.0,0.0,0.0,0.0,0.0,0.0,5736.0,1704.0,16244.0,-402.0,1008.0,idle
2026-10-07T00:36:06.686,18438.0,0.0,0.0,0.0,0.0,0.0,5584.0,1800.0,16196.0,-508.0,1073.0,idle
2026-10-07T00:36:06.735,18488.0,0.0,0.0,0.0,0.0,0.0,5636.0,1684.0,16204.0,-515.0,973.0,idle
2026-10-07T00:36:06.784,18538.0,0.0,0.0,0.0,0.0,0.0,5696.0,1712.0,16300.0,-433.0,933.0,idle
2026-10-07T00:36:06.834,18588.0,0.0,0.0,0.0,0.0,0.0,5696.0,1752.0,16176.0,-396.0,971.0,idle
2026-10-07T00:36:06.884,18638.0,0.0,0.0,0.0,0.0,0.0,5716.0,1832.0,16296.0,-385.0,969.0,idle
2026-10-07T00:36:06.934,18688.0,0.0,0.0,0.0,0.0,0.0,5860.0,1728.0,16100.0,-436.0,1077.0,idle
2026-10-07T00:36:06.987,18738.0,0.0,0.0,0.0,0.0,0.0,5652.0,1772.0,16224.0,-485.0,1028.0,idle
2026-10-07T00:36:07.034,18788.0,0.0,0.0,0.0,0.0,0.0,5620.0,1752.0,16324.0,-537.0,932.0,idle
2026-10-07T00:36:07.085,18838.0,0.0,0.0,0.0,0.0,0.0,5792.0,1680.0,16148.0,-523.0,1048.0,idle
2026-10-07T00:36:07.135,18888.0,0.0,0.0,0.0,0.0,0.0,5732.0,1720.0,16156.0,-433.0,1025.0,idle
2026-10-07T00:36:07.187,18938.0,0.0,0.0,0.0,0.0,0.0,5672.0,1796.0,16148.0,-493.0,1037.0,idle
2026-10-07T00:36:07.234,18988.0,0.0,0.0,0.0,0.0,0.0,5616.0,1832.0,16236.0,-540.0,1004.0,idle
2026-10-07T00:36:07.285,19038.0,0.0,0.0,0.0,0.0,0.0,5760.0,1800.0,16188.0,-489.0,930.0,idle
2026-10-07T00:36:07.335,19088.0,0.0,0.0,0.0,0.0,0.0,5812.0,1704.0,16204.0,-504.0,966.0,idle
2026-10-07T00:36:07.384,19138.0,0.0,0.0,0.0,0.0,0.0,5756.0,1772.0,16248.0,-600.0,1062.0,idle
2026-10-07T00:36:07.438,19188.0,0.0,0.0,0.0,0.0,0.0,5732.0,1772.0,16148.0,-536.0,1028.0,idle
2026-10-07T00:36:07.485,19238.0,0.0,0.0,0.0,0.0,0.0,5596.0,1720.0,16264.0,-595.0,991.0,idle
2026-10-07T00:36:07.537,19288.0,0.0,0.0,0.0,0.0,0.0,5740.0,1680.0,16132.0,-484.0,929.0,idle
2026-10-07T00:36:07.585,19338.0,0.0,0.0,0.0,0.0,0.0,5808.0,1824.0,16156.0,-428.0,1014.0,idle
2026-10-07T00:36:07.638,19388.0,0.0,0.0,0.0,0.0,0.0,5640.0,1728.0,16324.0,-508.0,1066.0,idle
2026-10-07T00:36:07.684,19438.0,0.0,0.0,0.0,0.0,0.0,5600.0,1736.0,16172.0,-406.0,1051.0,idle
2026-10-07T00:36:07.738,19488.0,0.0,0.0,0.0,0.0,0.0,5700.0,1796.0,16276.0,-515.0,982.0,idle
2026-10-07T00:36:07.785,19538.0,0.0,0.0,0.0,0.0,0.0,5712.0,1728.0,16104.0,-495.0,926.0,idle
2026-10-07T00:36:07.837,19588.0,0.0,0.0,0.0,0.0,0.0,5740.0,1676.0,16200.0,-463.0,953.0,idle
2026-10-07T00:36:07.884,19638.0,0.0,0.0,0.0,0.0,0.0,5688.0,1780.0,16232.0,-416.0,1024.0,idle
2026-10-07T00:36:07.938,19688.0,0.0,0.0,0.0,0.0,0.0,5656.0,1836.0,16120.0,-540.0,963.0,idle
2026-10-07T00:36:07.988,19738.0,0.0,0.0,0.0,0.0,0.0,5768.0,1836.0,16168.0,-505.0,1048.0,idle
2026-10-07T00:36:08.037,19788.0,0.0,0.0,0.0,0.0,0.0,5800.0,1780.0,16172.0,-520.0,997.0,idle
2026-10-07T00:36:08.087,19838.0,0.0,0.0,0.0,0.0,0.0,5668.0,1808.0,16192.0,-594.0,1029.0,idle
2026-10-07T00:36:08.135,19888.0,0.0,0.0,0.0,0.0,0.0,5700.0,1700.0,16276.0,-560.0,914.0,idle
2026-10-07T00:36:08.185,19938.0,0.0,0.0,0.0,0.0,0.0,5720.0,1768.0,16184.0,-518.0,1056.0,idle
