timestamp,t1,t2,t3,t4,t5,ax,ay,az,gx,gy,gz,label
2026-10-07T00:37:08.224,1188.0,0.0,0.0,0.0,0.0,0.0,5828.0,1380.0,16100.0,-420.0,1058.0,idle
2026-10-07T00:37:08.269,1238.0,0.0,0.0,0.0,0.0,0.0,5824.0,1388.0,16216.0,-415.0,892.0,idle
2026-10-07T00:37:08.317,1288.0,0.0,0.0,0.0,0.0,0.0,5832.0,1416.0,16188.0,-415.0,938.0,idle
2026-10-07T00:37:08.368,1338.0,0.0,0.0,0.0,0.0,0.0,5860.0,1548.0,16164.0,-512.0,1068.0,idle
2026-10-07T00:37:08.415,1388.0,0.0,0.0,0.0,0.0,0.0,5908.0,1404.0,16252.0,-451.0,912.0,idle
2026-10-07T00:37:08.463,1438.0,0.0,0.0,0.0,0.0,0.0,5892.0,1564.0,16272.0,-548.0,999.0,idle
2026-10-07T00:37:08.510,1488.0,0.0,0.0,0.0,0.0,0.0,5932.0,1284.0,16168.0,-537.0,995.0,idle
2026-10-07T00:37:08.559,1538.0,0.0,0.0,0.0,0.0,0.0,5792.0,1480.0,16256.0,-510.0,1079.0,idle
2026-10-07T00:37:08.613,1588.0,0.0,0.0,0.0,0.0,0.0,5792.0,1344.0,16408.0,-507.0,985.0,idle
2026-10-07T00:37:08.659,1638.0,0.0,0.0,0.0,0.0,0.0,5756.0,1444.0,16168.0,-461.0,947.0,idle
2026-10-07T00:37:08.705,1688.0,0.0,0.0,0.0,0.0,0.0,5936.0,1380.0,16168.0,-498.0,901.0,idle
2026-10-07T00:37:08.768,1738.0,0.0,0.0,0.0,0.0,0.0,5820.0,1492.0,16156.0,-514.0,972.0,idle
2026-10-07T00:37:08.817,1788.0,0.0,0.0,0.0,0.0,0.0,5988.0,1212.0,16148.0,-518.0,985.0,idle
2026-10-07T00:37:08.864,1838.0,0.0,0.0,0.0,0.0,0.0,5856.0,1496.0,16200.0,-446.0,1087.0,idle
2026-10-07T00:37:08.911,1888.0,0.0,0.0,0.0,0.0,0.0,5868.0,1480.0,16272.0,-570.0,1111.0,idle
2026-10-07T00:37:08.960,1938.0,0.0,0.0,0.0,0.0,0.0,5764.0,1464.0,16164.0,-601.0,1054.0,idle
2026-10-07T00:37:09.010,1988.0,0.0,0.0,0.0,0.0,0.0,5812.0,1364.0,16244.0,-545.0,1005.0,idle
2026-10-07T00:37:09.069,2038.0,0.0,0.0,0.0,0.0,0.0,5764.0,1348.0,16220.0,-416.0,1046.0,idle
2026-10-07T00:37:09.120,2088.0,0.0,0.0,0.0,0.0,0.0,5744.0,1368.0,16292.0,-471.0,962.0,idle
2026-10-07T00:37:09.161,2138.0,0.0,0.0,0.0,0.0,0.0,5760.0,1496.0,16140.0,-469.0,936.0,idle
2026-10-07T00:37:09.213,2188.0,0.0,0.0,0.0,0.0,0.0,5912.0,1448.0,16268.0,-503.0,932.0,idle
2026-10-07T00:37:09.261,2238.0,0.0,0.0,0.0,0.0,0.0,5792.0,1380.0,16340.0,-498.0,1040.0,idle
2026-10-07T00:37:09.318,2288.0,0.0,0.0,0.0,0.0,0.0,5756.0,1424.0,16224.0,-480.0,984.0,idle
2026-10-07T00:37:09.365,2338.0,0.0,0.0,0.0,0.0,0.0,5724.0,1416.0,16212.0,-387.0,916.0,idle
2026-10-07T00:37:09.412,2388.0,0.0,0.0,0.0,0.0,0.0,5796.0,1520.0,16228.0,-491.0,823.0,idle
2026-10-07T00:37:09.461,2438.0,0.0,0.0,0.0,0.0,0.0,5868.0,1460.0,16132.0,-384.0,845.0,idle
2026-10-07T00:37:09.507,2488.0,0.0,0.0,0.0,0.0,0.0,5916.0,1448.0,16224.0,-449.0,997.0,idle
2026-10-07T00:37:09.561,2538.0,0.0,0.0,0.0,0.0,0.0,5824.0,1396.0,16228.0,-323.0,943.0,idle
2026-10-07T00:37:09.619,2588.0,0.0,0.0,0.0,0.0,0.0,5848.0,1584.0,16068.0,-542.0,885.0,idle
2026-10-07T00:37:09.661,2638.0,0.0,0.0,0.0,0.0,0.0,5916.0,1312.0,16252.0,-452.0,832.0,idle
2026-10-07T00:37:09.713,2688.0,0.0,0.0,0.0,0.0,0.0,6012.0,1564.0,16088.0,-408.0,942.0,idle
2026-10-07T00:37:09.762,2738.0,0.0,0.0,0.0,0.0,0.0,5832.0,1560.0,16144.0,-532.0,1119.0,idle
2026-10-07T00:37:09.820,2788.0,0.0,0.0,0.0,0.0,0.0,5872.0,1496.0,15996.0,-597.0,858.0,idle
2026-10-07T00:37:09.867,2838.0,0.0,0.0,0.0,0.0,0.0,5940.0,1312.0,16140.0,-442.0,943.0,idle
2026-10-07T00:37:09.914,2888.0,0.0,0.0,0.0,0.0,0.0,5860.0,1556.0,16120.0,-407.0,1006.0,idle
2026-10-07T00:37:09.963,2938.0,0.0,0.0,0.0,0.0,0.0,5924.0,1444.0,16220.0,-480.0,899.0,idle
2026-10-07T00:37:10.008,2988.0,0.0,0.0,0.0,0.0,0.0,5896.0,1612.0,16108.0,-560.0,1046.0,idle
2026-10-07T00:37:10.063,3038.0,0.0,0.0,0.0,0.0,0.0,6008.0,1328.0,16132.0,-523.0,1044.0,idle
2026-10-07T00:37:10.119,3088.0,0.0,0.0,0.0,0.0,0.0,5824.0,1464.0,16200.0,-552.0,980.0,idle
2026-10-07T00:37:10.170,3138.0,0.0,0.0,0.0,0.0,0.0,5856.0,1364.0,16264.0,-480.0,929.0,idle
2026-10-07T00:37:10.218,3188.0,0.0,0.0,0.0,0.0,0.0,5852.0,1432.0,16144.0,-473.0,1018.0,idle
2026-10-07T00:37:10.270,3238.0,0.0,0.0,0.0,0.0,0.0,5900.0,1364.0,16180.0,-368.0,795.0,idle
2026-10-07T00:37:10.323,3288.0,0.0,0.0,0.0,0.0,0.0,6144.0,1560.0,16112.0,-393.0,896.0,idle
2026-10-07T00:37:10.364,3338.0,0.0,0.0,0.0,0.0,0.0,6096.0,1468.0,16144.0,-445.0,985.0,idle
2026-10-07T00:37:10.418,3388.0,0.0,0.0,0.0,0.0,0.0,5976.0,1548.0,16176.0,-511.0,1020.0,idle
2026-10-07T00:37:10.465,3438.0,0.0,0.0,0.0,0.0,0.0,5972.0,1344.0,16108.0,-490.0,990.0,idle
2026-10-07T00:37:10.513,3488.0,0.0,0.0,0.0,0.0,0.0,5912.0,1568.0,16176.0,-387.0,1034.0,idle
2026-10-07T00:37:10.565,3538.0,0.0,0.0,0.0,0.0,0.0,5952.0,1560.0,16080.0,-459.0,1042.0,idle
2026-10-07T00:37:10.609,3588.0,0.0,0.0,0.0,0.0,0.0,5888.0,1608.0,16092.0,-510.0,947.0,idle
2026-10-07T00:37:10.670,3638.0,0.0,0.0,0.0,0.0,0.0,6072.0,1364.0,16240.0,-525.0,1030.0,idle
2026-10-07T00:37:10.712,3688.0,0.0,0.0,0.0,0.0,0.0,5956.0,1460.0,16196.0,-453.0,1073.0,idle
2026-10-07T00:37:10.766,3738.0,0.0,0.0,0.0,0.0,0.0,5952.0,1468.0,16204.0,-498.0,1030.0,idle
2026-10-07T00:37:10.806,3788.0,0.0,0.0,0.0,0.0,0.0,5932.0,1564.0,16124.0,-498.0,1029.0,idle
2026-10-07T00:37:10.868,3838.0,0.0,0.0,0.0,0.0,0.0,5912.0,1496.0,16060.0,-553.0,1050.0,idle
2026-10-07T00:37:10.915,3888.0,0.0,0.0,0.0,0.0,0.0,5876.0,1564.0,16296.0,-525.0,978.0,idle
2026-10-07T00:37:10.967,3938.0,0.0,0.0,0.0,0.0,0.0,5832.0,1540.0,16096.0,-463.0,1004.0,idle
2026-10-07T00:37:11.009,3988.0,0.0,0.0,0.0,0.0,0.0,5904.0,1468.0,16128.0,-546.0,970.0,idle
2026-10-07T00:37:11.067,4038.0,0.0,0.0,0.0,0.0,0.0,5936.0,1492.0,16140.0,-455.0,917.0,idle
2026-10-07T00:37:11.122,4088.0,0.0,0.0,0.0,0.0,0.0,5912.0,1532.0,16240.0,-440.0,1011.0,idle
2026-10-07T00:37:11.172,4138.0,0.0,0.0,0.0,0.0,0.0,5980.0,1532.0,16204.0,-530.0,992.0,idle
2026-10-07T00:37:11.216,4188.0,0.0,0.0,0.0,0.0,0.0,5952.0,1580.0,16168.0,-557.0,1154.0,idle
2026-10-07T00:37:11.269,4238.0,0.0,0.0,0.0,0.0,0.0,5892.0,1452.0,16196.0,-536.0,949.0,idle
2026-10-07T00:37:11.323,4288.0,0.0,0.0,0.0,0.0,0.0,5820.0,1496.0,16116.0,-481.0,1087.0,idle
2026-10-07T00:37:11.368,4338.0,0.0,0.0,0.0,0.0,0.0,5688.0,1520.0,16236.0,-576.0,974.0,idle
2026-10-07T00:37:11.417,4388.0,0.0,0.0,0.0,0.0,0.0,5880.0,1460.0,16108.0,-471.0,939.0,idle
2026-10-07T00:37:11.468,4438.0,0.0,0.0,0.0,0.0,0.0,5992.0,1488.0,16188.0,-481.0,958.0,idle
2026-10-07T00:37:11.513,4488.0,0.0,0.0,0.0,0.0,0.0,5876.0,1428.0,16144.0,-444.0,1030.0,idle
2026-10-07T00:37:11.569,4538.0,0.0,0.0,0.0,0.0,0.0,5804.0,1616.0,16308.0,-389.0,988.0,idle
2026-10-07T00:37:11.607,4588.0,0.0,0.0,0.0,0.0,0.0,5996.0,1536.0,16100.0,-444.0,862.0,idle
2026-10-07T00:37:11.669,4638.0,0.0,0.0,0.0,0.0,0.0,5952.0,1668.0,16176.0,-511.0,1012.0,idle
2026-10-07T00:37:11.717,4688.0,0.0,0.0,0.0,0.0,0.0,5928.0,1476.0,16120.0,-502.0,1074.0,idle
2026-10-07T00:37:11.769,4738.0,0.0,0.0,0.0,0.0,0.0,5808.0,1552.0,16184.0,-456.0,1046.0,idle
2026-10-07T00:37:11.809,4788.0,0.0,0.0,0.0,0.0,0.0,5844.0,1512.0,16284.0,-463.0,1014.0,idle
2026-10-07T00:37:11.872,4838.0,0.0,0.0,0.0,0.0,0.0,5884.0,1696.0,16268.0,-475.0,870.0,idle
2026-10-07T00:37:11.919,4888.0,0.0,0.0,0.0,0.0,0.0,6060.0,1532.0,16112.0,-511.0,983.0,idle
2026-10-07T00:37:11.969,4938.0,0.0,0.0,0.0,0.0,0.0,5908.0,1604.0,16132.0,-484.0,1018.0,idle
2026-10-07T00:37:12.014,4988.0,0.0,0.0,0.0,0.0,0.0,5860.0,1504.0,16072.0,-501.0,1050.0,idle
2026-10-07T00:37:12.069,5038.0,0.0,0.0,0.0,0.0,0.0,5852.0,1428.0,16288.0,-498.0,912.0,idle
2026-10-07T00:37:12.108,5088.0,0.0,0.0,0.0,0.0,0.0,6000.0,1552.0,16116.0,-479.0,992.0,idle
2026-10-07T00:37:12.170,5138.0,0.0,0.0,0.0,0.0,0.0,5796.0,1620.0,16288.0,-585.0,1068.0,idle
2026-10-07T00:37:12.218,5188.0,0.0,0.0,0.0,0.0,0.0,5864.0,1364.0,16120.0,-510.0,942.0,idle
2026-10-07T00:37:12.270,5238.0,0.0,0.0,0.0,0.0,0.0,5904.0,1552.0,16172.0,-408.0,954.0,idle
2026-10-07T00:37:12.313,5288.0,0.0,0.0,0.0,0.0,0.0,5944.0,1536.0,16132.0,-399.0,884.0,idle
2026-10-07T00:37:12.370,5338.0,0.0,0.0,0.0,0.0,0.0,5852.0,1576.0,16124.0,-445.0,994.0,idle
2026-10-07T00:37:12.420,5388.0,0.0,0.0,0.0,0.0,0.0,5960.0,1596.0,16128.0,-487.0,931.0,idle
2026-10-07T00:37:12.470,5438.0,0.0,0.0,0.0,0.0,0.0,5956.0,1484.0,16140.0,-440.0,978.0,idle
2026-10-07T00:37:12.515,5488.0,0.0,0.0,0.0,0.0,0.0,5896.0,1568.0,16148.0,-466.0,990.0,idle
2026-10-07T00:37:12.564,5538.0,0.0,0.0,0.0,0.0,0.0,5904.0,1488.0,16132.0,-503.0,950.0,idle
2026-10-07T00:37:12.617,5588.0,0.0,0.0,0.0,0.0,0.0,5972.0,1720.0,16096.0,-476.0,906.0,idle
2026-10-07T00:37:12.657,5638.0,0.0,0.0,0.0,0.0,0.0,6000.0,1416.0,16204.0,-470.0,908.0,idle
2026-10-07T00:37:12.720,5688.0,0.0,0.0,0.0,0.0,0.0,5936.0,1648.0,16204.0,-429.0,897.0,idle
2026-10-07T00:37:12.771,5738.0,0.0,0.0,0.0,0.0,0.0,6112.0,1528.0,16080.0,-443.0,958.0,idle
2026-10-07T00:37:12.821,5788.0,0.0,0.0,0.0,0.0,0.0,6088.0,1688.0,16064.0,-511.0,1080.0,idle
2026-10-07T00:37:12.859,5838.0,0.0,0.0,0.0,0.0,0.0,5964.0,1464.0,16168.0,-563.0,918.0,idle
2026-10-07T00:37:12.922,5888.0,0.0,0.0,0.0,0.0,0.0,5960.0,1604.0,16200.0,-453.0,1117.0,idle
2026-10-07T00:37:12.969,5938.0,0.0,0.0,0.0,0.0,0.0,5772.0,1560.0,16028.0,-435.0,1048.0,idle
2026-10-07T00:37:13.016,5988.0,0.0,0.0,0.0,0.0,0.0,6016.0,1484.0,16108.0,-427.0,829.0,idle
2026-10-07T00:37:13.063,6038.0,0.0,0.0,0.0,0.0,0.0,6100.0,1764.0,16136.0,-464.0,1054.0,idle
2026-10-07T00:37:13.111,6088.0,0.0,0.0,0.0,0.0,0.0,6000.0,1584.0,16056.0,-605.0,1051.0,idle
2026-10-07T00:37:13.158,6138.0,0.0,0.0,0.0,0.0,0.0,6056.0,1496.0,16184.0,-495.0,1001.0,idle
2026-10-07T00:37:13.221,6188.0,0.0,0.0,0.0,0.0,0.0,5912.0,1560.0,16196.0,-479.0,1132.0,idle
2026-10-07T00:37:13.269,6238.0,0.0,0.0,0.0,0.0,0.0,6044.0,1560.0,16148.0,-458.0,996.0,idle
2026-10-07T00:37:13.317,6288.0,0.0,0.0,0.0,0.0,0.0,6016.0,1676.0,16184.0,-533.0,1118.0,idle
2026-10-07T00:37:13.363,6338.0,0.0,0.0,0.0,0.0,0.0,5908.0,1628.0,16024.0,-597.0,1115.0,idle
2026-10-07T00:37:13.410,6388.0,0.0,0.0,0.0,0.0,0.0,5896.0,1512.0,16232.0,-555.0,1029.0,idle
2026-10-07T00:37:13.457,6438.0,0.0,0.0,0.0,0.0,0.0,5912.0,1384.0,16240.0,-433.0,954.0,idle
2026-10-07T00:37:13.520,6488.0,0.0,0.0,0.0,0.0,0.0,5920.0,1616.0,16116.0,-382.0,932.0,idle
2026-10-07T00:37:13.567,6538.0,0.0,0.0,0.0,0.0,0.0,6004.0,1652.0,16032.0,-436.0,990.0,idle
2026-10-07T00:37:13.618,6588.0,0.0,0.0,0.0,0.0,0.0,6140.0,1656.0,16128.0,-562.0,854.0,idle
2026-10-07T00:37:13.663,6638.0,0.0,0.0,0.0,0.0,0.0,6044.0,1512.0,16172.0,-478.0,1149.0,idle
2026-10-07T00:37:13.710,6688.0,0.0,0.0,0.0,0.0,0.0,5824.0,1636.0,16228.0,-530.0,1212.0,idle
2026-10-07T00:37:13.757,6738.0,0.0,0.0,0.0,0.0,0.0,5756.0,1548.0,16128.0,-542.0,892.0,idle
2026-10-07T00:37:13.820,6788.0,0.0,0.0,0.0,0.0,0.0,5968.0,1412.0,16164.0,-424.0,877.0,idle
2026-10-07T00:37:13.870,6838.0,0.0,0.0,0.0,0.0,0.0,5924.0,1544.0,16140.0,-410.0,1059.0,idle
2026-10-07T00:37:13.909,6888.0,0.0,0.0,0.0,0.0,0.0,5908.0,1664.0,16040.0,-517.0,1042.0,idle
2026-10-07T00:37:13.956,6938.0,0.0,0.0,0.0,0.0,0.0,5920.0,1692.0,16292.0,-534.0,992.0,idle
2026-10-07T00:37:14.020,6988.0,0.0,0.0,0.0,0.0,0.0,5992.0,1592.0,16084.0,-528.0,997.0,idle
2026-10-07T00:37:14.067,7038.0,0.0,0.0,0.0,0.0,0.0,5904.0,1624.0,16136.0,-512.0,994.0,idle
2026-10-07T00:37:14.114,7088.0,0.0,0.0,0.0,0.0,0.0,5840.0,1528.0,16204.0,-481.0,949.0,idle
2026-10-07T00:37:14.162,7138.0,0.0,0.0,0.0,0.0,0.0,5900.0,1660.0,16204.0,-422.0,979.0,idle
2026-10-07T00:37:14.209,7188.0,0.0,0.0,0.0,0.0,0.0,6056.0,1552.0,16184.0,-524.0,941.0,idle
2026-10-07T00:37:14.272,7238.0,0.0,0.0,0.0,0.0,0.0,5960.0,1564.0,16160.0,-447.0,983.0,idle
2026-10-07T00:37:14.320,7288.0,0.0,0.0,0.0,0.0,0.0,5952.0,1640.0,16136.0,-537.0,1025.0,idle
2026-10-07T00:37:14.367,7338.0,0.0,0.0,0.0,0.0,0.0,5884.0,1580.0,16104.0,-531.0,1045.0,idle
2026-10-07T00:37:14.420,7388.0,0.0,0.0,0.0,0.0,0.0,5872.0,1544.0,16120.0,-483.0,1061.0,idle
2026-10-07T00:37:14.460,7438.0,0.0,0.0,0.0,0.0,0.0,5844.0,1740.0,16100.0,-513.0,1084.0,idle
2026-10-07T00:37:14.506,7488.0,0.0,0.0,0.0,0.0,0.0,5904.0,1584.0,16176.0,-550.0,908.0,idle
2026-10-07T00:37:14.568,7538.0,0.0,0.0,0.0,0.0,0.0,5956.0,1540.0,16220.0,-568.0,983.0,idle
2026-10-07T00:37:14.618,7588.0,0.0,0.0,0.0,0.0,0.0,5936.0,1536.0,16092.0,-457.0,948.0,idle
2026-10-07T00:37:14.665,7638.0,0.0,0.0,0.0,0.0,0.0,5920.0,1620.0,16156.0,-409.0,1019.0,idle
2026-10-07T00:37:14.712,7688.0,0.0,0.0,0.0,0.0,0.0,5908.0,1596.0,16156.0,-495.0,1029.0,idle
2026-10-07T00:37:14.759,7738.0,0.0,0.0,0.0,0.0,0.0,5972.0,1568.0,16228.0,-498.0,1012.0,idle
2026-10-07T00:37:14.806,7788.0,0.0,0.0,0.0,0.0,0.0,5900.0,1504.0,16060.0,-502.0,1010.0,idle
2026-10-07T00:37:14.869,7838.0,0.0,0.0,0.0,0.0,0.0,5884.0,1508.0,16116.0,-521.0,906.0,idle
2026-10-07T00:37:14.917,7888.0,0.0,0.0,0.0,0.0,0.0,5928.0,1624.0,16276.0,-417.0,1051.0,idle
2026-10-07T00:37:14.961,7938.0,0.0,0.0,0.0,0.0,0.0,5936.0,1496.0,16228.0,-435.0,875.0,idle
2026-10-07T00:37:15.008,7988.0,0.0,0.0,0.0,0.0,0.0,5956.0,1624.0,16104.0,-444.0,961.0,idle
2026-10-07T00:37:15.070,8038.0,0.0,0.0,0.0,0.0,0.0,6028.0,1612.0,16196.0,-496.0,954.0,idle
2026-10-07T00:37:15.117,8088.0,0.0,0.0,0.0,0.0,0.0,5952.0,1588.0,16096.0,-550.0,963.0,idle
2026-10-07T00:37:15.165,8138.0,0.0,0.0,0.0,0.0,0.0,6032.0,1548.0,16112.0,-460.0,935.0,idle
2026-10-07T00:37:15.212,8188.0,0.0,0.0,0.0,0.0,0.0,5960.0,1656.0,16124.0,-454.0,1052.0,idle
2026-10-07T00:37:15.259,8238.0,0.0,0.0,0.0,0.0,0.0,5744.0,1696.0,16220.0,-572.0,1051.0,idle
2026-10-07T00:37:15.307,8288.0,0.0,0.0,0.0,0.0,0.0,5892.0,1472.0,16092.0,-485.0,890.0,idle
2026-10-07T00:37:15.370,8338.0,0.0,0.0,0.0,0.0,0.0,6056.0,1580.0,16104.0,-438.0,1001.0,idle
2026-10-07T00:37:15.418,8388.0,0.0,0.0,0.0,0.0,0.0,6032.0,1600.0,16152.0,-420.0,978.0,idle
2026-10-07T00:37:15.472,8438.0,0.0,0.0,0.0,0.0,0.0,5896.0,1700.0,16120.0,-466.0,945.0,idle
2026-10-07T00:37:15.508,8488.0,0.0,0.0,0.0,0.0,0.0,5928.0,1516.0,16164.0,-481.0,845.0,idle
2026-10-07T00:37:15.556,8538.0,0.0,0.0,0.0,0.0,0.0,6072.0,1524.0,16128.0,-491.0,857.0,idle
2026-10-07T00:37:15.620,8588.0,0.0,0.0,0.0,0.0,0.0,6140.0,1504.0,16072.0,-505.0,1089.0,idle
2026-10-07T00:37:15.667,8638.0,0.0,0.0,0.0,0.0,0.0,5904.0,1676.0,16180.0,-476.0,1064.0,idle
2026-10-07T00:37:15.714,8688.0,0.0,0.0,0.0,0.0,0.0,5876.0,1508.0,16328.0,-482.0,894.0,idle
2026-10-07T00:37:15.762,8738.0,0.0,0.0,0.0,0.0,0.0,5992.0,1532.0,16128.0,-412.0,870.0,idle
2026-10-07T00:37:15.809,8788.0,0.0,0.0,0.0,0.0,0.0,6084.0,1576.0,16072.0,-396.0,866.0,idle
2026-10-07T00:37:15.873,8838.0,0.0,0.0,0.0,0.0,0.0,6024.0,1764.0,16096.0,-429.0,1070.0,idle
2026-10-07T00:37:15.920,8888.0,0.0,0.0,0.0,0.0,0.0,6084.0,1556.0,16092.0,-592.0,915.0,idle
2026-10-07T00:37:15.967,8938.0,0.0,0.0,0.0,0.0,0.0,5944.0,1636.0,16220.0,-523.0,1097.0,idle
2026-10-07T00:37:16.011,8988.0,0.0,0.0,0.0,0.0,0.0,5932.0,1596.0,16224.0,-487.0,1025.0,idle
2026-10-07T00:37:16.057,9038.0,0.0,0.0,0.0,0.0,0.0,6104.0,1600.0,16088.0,-476.0,933.0,idle
2026-10-07T00:37:16.110,9088.0,0.0,0.0,0.0,0.0,0.0,6116.0,1748.0,16136.0,-432.0,1028.0,idle
2026-10-07T00:37:16.169,9138.0,0.0,0.0,0.0,0.0,0.0,5980.0,1668.0,16228.0,-550.0,1124.0,idle
2026-10-07T00:37:16.217,9188.0,0.0,0.0,0.0,0.0,0.0,5904.0,1600.0,16196.0,-520.0,1054.0,idle
2026-10-07T00:37:16.264,9238.0,0.0,0.0,0.0,0.0,0.0,5912.0,1552.0,16184.0,-530.0,956.0,idle
2026-10-07T00:37:16.312,9288.0,0.0,0.0,0.0,0.0,0.0,5980.0,1536.0,15944.0,-499.0,1050.0,idle
2026-10-07T00:37:16.359,9338.0,0.0,0.0,0.0,0.0,0.0,5932.0,1608.0,16112.0,-518.0,1064.0,idle
2026-10-07T00:37:16.422,9388.0,0.0,0.0,0.0,0.0,0.0,6000.0,1608.0,16156.0,-537.0,1027.0,idle
2026-10-07T00:37:16.469,9438.0,0.0,0.0,0.0,0.0,0.0,5864.0,1588.0,16192.0,-521.0,1024.0,idle
2026-10-07T00:37:16.518,9488.0,0.0,0.0,0.0,0.0,0.0,5848.0,1540.0,16176.0,-505.0,948.0,idle
2026-10-07T00:37:16.560,9538.0,0.0,0.0,0.0,0.0,0.0,5948.0,1544.0,16180.0,-476.0,962.0,idle
2026-10-07T00:37:16.612,9588.0,0.0,0.0,0.0,0.0,0.0,5944.0,1704.0,16168.0,-482.0,1128.0,idle
2026-10-07T00:37:16.659,9638.0,0.0,0.0,0.0,0.0,0.0,5968.0,1540.0,16092.0,-504.0,957.0,idle
2026-10-07T00:37:16.722,9688.0,0.0,0.0,0.0,0.0,0.0,5968.0,1688.0,16064.0,-468.0,1046.0,idle
2026-10-07T00:37:16.769,9738.0,0.0,0.0,0.0,0.0,0.0,5840.0,1580.0,16216.0,-533.0,995.0,idle
2026-10-07T00:37:16.816,9788.0,0.0,0.0,0.0,0.0,0.0,5904.0,1428.0,16028.0,-434.0,976.0,idle
2026-10-07T00:37:16.863,9838.0,0.0,0.0,0.0,0.0,0.0,5972.0,1560.0,16196.0,-426.0,959.0,idle
2026-10-07T00:37:16.912,9888.0,0.0,0.0,0.0,0.0,0.0,6032.0,1648.0,16152.0,-482.0,1051.0,idle
2026-10-07T00:37:16.959,9938.0,0.0,0.0,0.0,0.0,0.0,5980.0,1672.0,16208.0,-524.0,1028.0,idle
2026-10-07T00:37:17.022,9988.0,0.0,0.0,0.0,0.0,0.0,5992.0,1632.0,16264.0,-553.0,1019.0,idle
2026-10-07T00:37:17.069,10038.0,0.0,0.0,0.0,0.0,0.0,6028.0,1504.0,16152.0,-474.0,1064.0,idle
2026-10-07T00:37:17.108,10088.0,0.0,0.0,0.0,0.0,0.0,6000.0,1584.0,16252.0,-509.0,1037.0,idle
2026-10-07T00:37:17.155,10138.0,0.0,0.0,0.0,0.0,0.0,5900.0,1672.0,16084.0,-529.0,951.0,idle
2026-10-07T00:37:17.219,10188.0,0.0,0.0,0.0,0.0,0.0,6020.0,1604.0,16216.0,-561.0,950.0,idle
2026-10-07T00:37:17.266,10238.0,0.0,0.0,0.0,0.0,0.0,5908.0,1540.0,16048.0,-491.0,1029.0,idle
2026-10-07T00:37:17.313,10288.0,0.0,0.0,0.0,0.0,0.0,5996.0,1664.0,16100.0,-490.0,934.0,idle
2026-10-07T00:37:17.360,10338.0,0.0,0.0,0.0,0.0,0.0,6020.0,1672.0,16100.0,-504.0,1030.0,idle
2026-10-07T00:37:17.408,10388.0,0.0,0.0,0.0,0.0,0.0,5916.0,1552.0,16036.0,-538.0,1102.0,idle
2026-10-07T00:37:17.471,10438.0,0.0,0.0,0.0,0.0,0.0,5952.0,1520.0,16124.0,-482.0,934.0,idle
2026-10-07T00:37:17.518,10488.0,0.0,0.0,0.0,0.0,0.0,5940.0,1688.0,16240.0,-450.0,990.0,idle
2026-10-07T00:37:17.565,10538.0,0.0,0.0,0.0,0.0,0.0,5984.0,1608.0,16192.0,-517.0,1011.0,idle
2026-10-07T00:37:17.611,10588.0,0.0,0.0,0.0,0.0,0.0,5996.0,1524.0,16028.0,-522.0,1023.0,idle
2026-10-07T00:37:17.658,10638.0,0.0,0.0,0.0,0.0,0.0,5964.0,1556.0,16172.0,-395.0,1028.0,idle
2026-10-07T00:37:17.705,10688.0,0.0,0.0,0.0,0.0,0.0,5916.0,1684.0,16140.0,-445.0,968.0,idle
2026-10-07T00:37:17.767,10738.0,0.0,0.0,0.0,0.0,0.0,5976.0,1488.0,16136.0,-475.0,1001.0,idle
2026-10-07T00:37:17.815,10788.0,0.0,0.0,0.0,0.0,0.0,5920.0,1632.0,16128.0,-495.0,968.0,idle
2026-10-07T00:37:17.862,10838.0,0.0,0.0,0.0,0.0,0.0,6020.0,1572.0,16176.0,-565.0,944.0,idle
2026-10-07T00:37:17.909,10888.0,0.0,0.0,0.0,0.0,0.0,5920.0,1628.0,16224.0,-472.0,1103.0,idle
2026-10-07T00:37:17.956,10938.0,0.0,0.0,0.0,0.0,0.0,5948.0,1568.0,16008.0,-492.0,940.0,idle
2026-10-07T00:37:18.019,10988.0,0.0,0.0,0.0,0.0,0.0,5932.0,1580.0,16244.0,-509.0,990.0,idle
2026-10-07T00:37:18.066,11038.0,0.0,0.0,0.0,0.0,0.0,5960.0,1604.0,16096.0,-447.0,940.0,idle
2026-10-07T00:37:18.115,11088.0,0.0,0.0,0.0,0.0,0.0,6056.0,1664.0,15948.0,-456.0,956.0,idle
2026-10-07T00:37:18.159,11138.0,0.0,0.0,0.0,0.0,0.0,5996.0,1716.0,16124.0,-548.0,988.0,idle
2026-10-07T00:37:18.206,11188.0,0.0,0.0,0.0,0.0,0.0,5916.0,1524.0,16144.0,-600.0,1018.0,idle
2026-10-07T00:37:18.269,11238.0,0.0,0.0,0.0,0.0,0.0,5968.0,1536.0,16104.0,-507.0,898.0,idle
2026-10-07T00:37:18.316,11288.0,0.0,0.0,0.0,0.0,0.0,5904.0,1632.0,16252.0,-438.0,1017.0,idle
2026-10-07T00:37:18.363,11338.0,0.0,0.0,0.0,0.0,0.0,5928.0,1668.0,16164.0,-483.0,910.0,idle
2026-10-07T00:37:18.414,11388.0,0.0,0.0,0.0,0.0,0.0,6068.0,1500.0,15980.0,-463.0,962.0,idle
2026-10-07T00:37:18.461,11438.0,0.0,0.0,0.0,0.0,0.0,6040.0,1512.0,16188.0,-461.0,1024.0,idle
2026-10-07T00:37:18.509,11488.0,0.0,0.0,0.0,0.0,0.0,5872.0,1548.0,15996.0,-454.0,985.0,idle
2026-10-07T00:37:18.558,11538.0,0.0,0.0,0.0,0.0,0.0,5944.0,1588.0,16072.0,-534.0,1037.0,idle
2026-10-07T00:37:18.619,11588.0,0.0,0.0,0.0,0.0,0.0,6064.0,1516.0,16228.0,-552.0,1009.0,idle
2026-10-07T00:37:18.661,11638.0,0.0,0.0,0.0,0.0,0.0,6016.0,1600.0,16136.0,-479.0,1029.0,idle
2026-10-07T00:37:18.709,11688.0,0.0,0.0,0.0,0.0,0.0,6004.0,1528.0,16160.0,-560.0,972.0,idle
2026-10-07T00:37:18.756,11738.0,0.0,0.0,0.0,0.0,0.0,5944.0,1572.0,16012.0,-486.0,968.0,idle
2026-10-07T00:37:18.819,11788.0,0.0,0.0,0.0,0.0,0.0,5996.0,1636.0,16148.0,-547.0,1025.0,idle
2026-10-07T00:37:18.866,11838.0,0.0,0.0,0.0,0.0,0.0,6056.0,1476.0,16080.0,-413.0,945.0,idle
2026-10-07T00:37:18.913,11888.0,0.0,0.0,0.0,0.0,0.0,6084.0,1696.0,16136.0,-466.0,965.0,idle
2026-10-07T00:37:18.960,11938.0,0.0,0.0,0.0,0.0,0.0,6028.0,1564.0,16204.0,-517.0,1059.0,idle
2026-10-07T00:37:19.008,11988.0,0.0,0.0,0.0,0.0,0.0,5940.0,1668.0,16132.0,-407.0,1103.0,idle
2026-10-07T00:37:19.055,12038.0,0.0,0.0,0.0,0.0,0.0,5956.0,1684.0,16140.0,-411.0,1020.0,idle
2026-10-07T00:37:19.117,12088.0,0.0,0.0,0.0,0.0,0.0,5880.0,1600.0,16172.0,-587.0,942.0,idle
2026-10-07T00:37:19.169,12138.0,0.0,0.0,0.0,0.0,0.0,6060.0,1516.0,16080.0,-494.0,1034.0,idle
2026-10-07T00:37:19.210,12188.0,0.0,0.0,0.0,0.0,0.0,5988.0,1508.0,16108.0,-446.0,999.0,idle
2026-10-07T00:37:19.257,12238.0,0.0,0.0,0.0,0.0,0.0,5932.0,1640.0,16172.0,-472.0,1079.0,idle
2026-10-07T00:37:19.320,12288.0,0.0,0.0,0.0,0.0,0.0,5896.0,1720.0,16140.0,-541.0,962.0,idle
2026-10-07T00:37:19.367,12338.0,0.0,0.0,0.0,0.0,0.0,6076.0,1464.0,16160.0,-550.0,1015.0,idle
2026-10-07T00:37:19.415,12388.0,0.0,0.0,0.0,0.0,0.0,5960.0,1624.0,16176.0,-527.0,1098.0,idle
2026-10-07T00:37:19.462,12438.0,0.0,0.0,0.0,0.0,0.0,5896.0,1560.0,16260.0,-502.0,1093.0,idle
2026-10-07T00:37:19.510,12488.0,0.0,0.0,0.0,0.0,0.0,5780.0,1656.0,16224.0,-531.0,1019.0,idle
2026-10-07T00:37:19.557,12538.0,0.0,0.0,0.0,0.0,0.0,6064.0,1492.0,15980.0,-498.0,916.0,idle
2026-10-07T00:37:19.604,12588.0,0.0,0.0,0.0,0.0,0.0,5944.0,1544.0,16088.0,-488.0,1016.0,idle
2026-10-07T00:37:19.667,12638.0,0.0,0.0,0.0,0.0,0.0,5964.0,1596.0,16076.0,-502.0,1000.0,idle
2026-10-07T00:37:19.719,12688.0,0.0,0.0,0.0,0.0,0.0,5896.0,1652.0,16128.0,-540.0,1079.0,idle
2026-10-07T00:37:19.758,12738.0,0.0,0.0,0.0,0.0,0.0,5976.0,1520.0,16152.0,-441.0,941.0,idle
2026-10-07T00:37:19.807,12788.0,0.0,0.0,0.0,0.0,0.0,5924.0,1668.0,16244.0,-433.0,1006.0,idle
2026-10-07T00:37:19.870,12838.0,0.0,0.0,0.0,0.0,0.0,5924.0,1756.0,16324.0,-567.0,893.0,idle
2026-10-07T00:37:19.917,12888.0,0.0,0.0,0.0,0.0,0.0,6088.0,1392.0,15976.0,-516.0,1024.0,idle
2026-10-07T00:37:19.965,12938.0,0.0,0.0,0.0,0.0,0.0,6088.0,1484.0,16192.0,-465.0,1017.0,idle
2026-10-07T00:37:20.012,12988.0,0.0,0.0,0.0,0.0,0.0,5888.0,1664.0,16060.0,-451.0,1056.0,idle
2026-10-07T00:37:20.060,13038.0,0.0,0.0,0.0,0.0,0.0,5872.0,1580.0,16072.0,-544.0,1005.0,idle
2026-10-07T00:37:20.108,13088.0,0.0,0.0,0.0,0.0,0.0,6020.0,1480.0,16124.0,-504.0,980.0,idle
2026-10-07T00:37:20.170,13138.0,0.0,0.0,0.0,0.0,0.0,5924.0,1596.0,16172.0,-498.0,1001.0,idle
2026-10-07T00:37:20.218,13188.0,0.0,0.0,0.0,0.0,0.0,5884.0,1560.0,16124.0,-547.0,1004.0,idle
2026-10-07T00:37:20.262,13238.0,0.0,0.0,0.0,0.0,0.0,5740.0,1596.0,16188.0,-595.0,805.0,idle
2026-10-07T00:37:20.310,13288.0,0.0,0.0,0.0,0.0,0.0,6060.0,1420.0,16136.0,-460.0,896.0,idle
2026-10-07T00:37:20.359,13338.0,0.0,0.0,0.0,0.0,0.0,6044.0,1580.0,16212.0,-409.0,909.0,idle
2026-10-07T00:37:20.406,13388.0,0.0,0.0,0.0,0.0,0.0,6036.0,1660.0,16080.0,-471.0,988.0,idle
2026-10-07T00:37:20.468,13438.0,0.0,0.0,0.0,0.0,0.0,6008.0,1608.0,16124.0,-517.0,1001.0,idle
2026-10-07T00:37:20.516,13488.0,0.0,0.0,0.0,0.0,0.0,5924.0,1472.0,16168.0,-471.0,991.0,idle
2026-10-07T00:37:20.563,13538.0,0.0,0.0,0.0,0.0,0.0,5952.0,1532.0,16192.0,-448.0,907.0,idle
2026-10-07T00:37:20.611,13588.0,0.0,0.0,0.0,0.0,0.0,6076.0,1624.0,16144.0,-392.0,1038.0,idle
2026-10-07T00:37:20.661,13638.0,0.0,0.0,0.0,0.0,0.0,5900.0,1716.0,16096.0,-507.0,1054.0,idle
2026-10-07T00:37:20.721,13688.0,0.0,0.0,0.0,0.0,0.0,5928.0,1584.0,16128.0,-550.0,865.0,idle
2026-10-07T00:37:20.770,13738.0,0.0,0.0,0.0,0.0,0.0,6140.0,1372.0,16164.0,-426.0,990.0,idle
2026-10-07T00:37:20.808,13788.0,0.0,0.0,0.0,0.0,0.0,6040.0,1572.0,16080.0,-391.0,1038.0,idle
2026-10-07T00:37:20.855,13838.0,0.0,0.0,0.0,0.0,0.0,5892.0,1684.0,15996.0,-495.0,1006.0,idle
2026-10-07T00:37:20.918,13888.0,0.0,0.0,0.0,0.0,0.0,5916.0,1580.0,15996.0,-487.0,1021.0,idle
2026-10-07T00:37:20.966,13938.0,0.0,0.0,0.0,0.0,0.0,6060.0,1528.0,16148.0,-450.0,950.0,idle
2026-10-07T00:37:21.014,13988.0,0.0,0.0,0.0,0.0,0.0,6148.0,1688.0,16140.0,-450.0,954.0,idle
2026-10-07T00:37:21.061,14038.0,0.0,0.0,0.0,0.0,0.0,5984.0,1684.0,15960.0,-601.0,984.0,idle
2026-10-07T00:37:21.108,14088.0,0.0,0.0,0.0,0.0,0.0,6016.0,1464.0,16196.0,-525.0,967.0,idle
2026-10-07T00:37:21.156,14138.0,0.0,0.0,0.0,0.0,0.0,5936.0,1544.0,16208.0,-430.0,1007.0,idle
2026-10-07T00:37:21.207,14188.0,0.0,0.0,0.0,0.0,0.0,6020.0,1524.0,16172.0,-437.0,944.0,idle
2026-10-07T00:37:21.270,14238.0,0.0,0.0,0.0,0.0,0.0,6036.0,1728.0,16144.0,-475.0,990.0,idle
2026-10-07T00:37:21.313,14288.0,0.0,0.0,0.0,0.0,0.0,6076.0,1544.0,16080.0,-506.0,1115.0,idle
2026-10-07T00:37:21.360,14338.0,0.0,0.0,0.0,0.0,0.0,5980.0,1512.0,16160.0,-496.0,1034.0,idle
2026-10-07T00:37:21.422,14388.0,0.0,0.0,0.0,0.0,0.0,5860.0,1656.0,16192.0,-485.0,1119.0,idle
2026-10-07T00:37:21.468,14438.0,0.0,0.0,0.0,0.0,0.0,5972.0,1648.0,16168.0,-582.0,903.0,idle
2026-10-07T00:37:21.516,14488.0,0.0,0.0,0.0,0.0,0.0,6092.0,1436.0,16036.0,-466.0,1074.0,idle
2026-10-07T00:37:21.563,14538.0,0.0,0.0,0.0,0.0,0.0,5952.0,1696.0,16156.0,-497.0,1133.0,idle
2026-10-07T00:37:21.611,14588.0,0.0,0.0,0.0,0.0,0.0,5808.0,1624.0,16056.0,-565.0,1085.0,idle
2026-10-07T00:37:21.657,14638.0,0.0,0.0,0.0,0.0,0.0,6032.0,1584.0,16000.0,-586.0,1066.0,idle
2026-10-07T00:37:21.705,14688.0,0.0,0.0,0.0,0.0,0.0,5932.0,1460.0,16044.0,-530.0,1051.0,idle
2026-10-07T00:37:21.767,14738.0,0.0,0.0,0.0,0.0,0.0,5932.0,1632.0,16288.0,-542.0,981.0,idle
2026-10-07T00:37:21.816,14788.0,0.0,0.0,0.0,0.0,0.0,6064.0,1600.0,16140.0,-564.0,1119.0,idle
2026-10-07T00:37:21.859,14838.0,0.0,0.0,0.0,0.0,0.0,5940.0,1500.0,16168.0,-544.0,1098.0,idle
2026-10-07T00:37:21.908,14888.0,0.0,0.0,0.0,0.0,0.0,5892.0,1452.0,16192.0,-500.0,1000.0,idle
2026-10-07T00:37:21.955,14938.0,0.0,0.0,0.0,0.0,0.0,5932.0,1572.0,16080.0,-447.0,1006.0,idle
2026-10-07T00:37:22.018,14988.0,0.0,0.0,0.0,0.0,0.0,6084.0,1540.0,16120.0,-499.0,998.0,idle
2026-10-07T00:37:22.065,15038.0,0.0,0.0,0.0,0.0,0.0,5948.0,1568.0,16220.0,-476.0,1099.0,idle
2026-10-07T00:37:22.112,15088.0,0.0,0.0,0.0,0.0,0.0,5852.0,1516.0,16056.0,-515.0,885.0,idle
2026-10-07T00:37:22.168,15138.0,0.0,0.0,0.0,0.0,0.0,6020.0,1504.0,16236.0,-452.0,937.0,idle
2026-10-07T00:37:22.209,15188.0,0.0,0.0,0.0,0.0,0.0,5912.0,1604.0,16248.0,-487.0,1043.0,idle
2026-10-07T00:37:22.272,15238.0,0.0,0.0,0.0,0.0,0.0,5892.0,1464.0,16116.0,-473.0,978.0,idle
2026-10-07T00:37:22.304,15288.0,0.0,0.0,0.0,0.0,0.0,5972.0,1700.0,16060.0,-468.0,956.0,idle
2026-10-07T00:37:22.372,15338.0,0.0,0.0,0.0,0.0,0.0,5996.0,1464.0,16192.0,-488.0,1005.0,idle
2026-10-07T00:37:22.410,15388.0,0.0,0.0,0.0,0.0,0.0,5844.0,1596.0,16168.0,-538.0,919.0,idle
2026-10-07T00:37:22.457,15438.0,0.0,0.0,0.0,0.0,0.0,5924.0,1600.0,16016.0,-503.0,878.0,idle
2026-10-07T00:37:22.504,15488.0,0.0,0.0,0.0,0.0,0.0,6024.0,1472.0,16200.0,-531.0,1029.0,idle
2026-10-07T00:37:22.567,15538.0,0.0,0.0,0.0,0.0,0.0,5904.0,1688.0,16120.0,-467.0,1078.0,idle
2026-10-07T00:37:22.615,15588.0,0.0,0.0,0.0,0.0,0.0,5912.0,1592.0,16080.0,-522.0,979.0,idle
2026-10-07T00:37:22.662,15638.0,0.0,0.0,0.0,0.0,0.0,5896.0,1564.0,16220.0,-518.0,1030.0,idle
2026-10-07T00:37:22.710,15688.0,0.0,0.0,0.0,0.0,0.0,5916.0,1552.0,16220.0,-414.0,898.0,idle
2026-10-07T00:37:22.757,15738.0,0.0,0.0,0.0,0.0,0.0,6056.0,1676.0,16120.0,-447.0,906.0,idle
2026-10-07T00:37:22.805,15788.0,0.0,0.0,0.0,0.0,0.0,6016.0,1672.0,16132.0,-521.0,990.0,idle
2026-10-07T00:37:22.867,15838.0,0.0,0.0,0.0,0.0,0.0,5884.0,1540.0,16052.0,-544.0,976.0,idle
2026-10-07T00:37:22.912,15888.0,0.0,0.0,0.0,0.0,0.0,5948.0,1400.0,16136.0,-446.0,961.0,idle
2026-10-07T00:37:22.959,15938.0,0.0,0.0,0.0,0.0,0.0,5964.0,1688.0,16132.0,-412.0,994.0,idle
2026-10-07T00:37:23.011,15988.0,0.0,0.0,0.0,0.0,0.0,5972.0,1648.0,16216.0,-486.0,1013.0,idle
2026-10-07T00:37:23.071,16038.0,0.0,0.0,0.0,0.0,0.0,5952.0,1564.0,16136.0,-518.0,847.0,idle
2026-10-07T00:37:23.118,16088.0,0.0,0.0,0.0,0.0,0.0,6112.0,1600.0,16160.0,-399.0,975.0,idle
2026-10-07T00:37:23.167,16138.0,0.0,0.0,0.0,0.0,0.0,6076.0,1532.0,16008.0,-475.0,1146.0,idle
2026-10-07T00:37:23.213,16188.0,0.0,0.0,0.0,0.0,0.0,5828.0,1752.0,16156.0,-563.0,944.0,idle
2026-10-07T00:37:23.260,16238.0,0.0,0.0,0.0,0.0,0.0,5964.0,1504.0,16100.0,-539.0,957.0,idle
2026-10-07T00:37:23.307,16288.0,0.0,0.0,0.0,0.0,0.0,5992.0,1572.0,16128.0,-452.0,948.0,idle
2026-10-07T00:37:23.355,16338.0,0.0,0.0,0.0,0.0,0.0,5988.0,1596.0,16072.0,-420.0,930.0,idle
2026-10-07T00:37:23.422,16388.0,0.0,0.0,0.0,0.0,0.0,5864.0,1716.0,16132.0,-546.0,958.0,idle
2026-10-07T00:37:23.459,16438.0,0.0,0.0,0.0,0.0,0.0,5964.0,1444.0,16032.0,-499.0,919.0,idle
2026-10-07T00:37:23.506,16488.0,0.0,0.0,0.0,0.0,0.0,6000.0,1600.0,16196.0,-393.0,853.0,idle
2026-10-07T00:37:23.569,16538.0,0.0,0.0,0.0,0.0,0.0,6080.0,1608.0,16096.0,-411.0,889.0,idle
2026-10-07T00:37:23.622,16588.0,0.0,0.0,0.0,0.0,0.0,6124.0,1640.0,16076.0,-519.0,978.0,idle
2026-10-07T00:37:23.664,16638.0,0.0,0.0,0.0,0.0,0.0,6028.0,1504.0,16200.0,-565.0,1120.0,idle
2026-10-07T00:37:23.712,16688.0,0.0,0.0,0.0,0.0,0.0,5884.0,1584.0,16016.0,-441.0,1063.0,idle
2026-10-07T00:37:23.767,16738.0,0.0,0.0,0.0,0.0,0.0,5848.0,1756.0,16264.0,-447.0,1000.0,idle
2026-10-07T00:37:23.813,16788.0,0.0,0.0,0.0,0.0,0.0,6044.0,1648.0,16172.0,-521.0,887.0,idle
2026-10-07T00:37:23.859,16838.0,0.0,0.0,0.0,0.0,0.0,6064.0,1580.0,16024.0,-476.0,1088.0,idle
2026-10-07T00:37:23.921,16888.0,0.0,0.0,0.0,0.0,0.0,5956.0,1620.0,16168.0,-488.0,1106.0,idle
2026-10-07T00:37:23.963,16938.0,0.0,0.0,0.0,0.0,0.0,5980.0,1708.0,16076.0,-509.0,1005.0,idle
2026-10-07T00:37:24.018,16988.0,0.0,0.0,0.0,0.0,0.0,5956.0,1552.0,16128.0,-529.0,986.0,idle
2026-10-07T00:37:24.066,17038.0,0.0,0.0,0.0,0.0,0.0,6036.0,1552.0,16168.0,-495.0,1019.0,idle
2026-10-07T00:37:24.118,17088.0,0.0,0.0,0.0,0.0,0.0,6016.0,1684.0,16072.0,-500.0,1083.0,idle
2026-10-07T00:37:24.169,17138.0,0.0,0.0,0.0,0.0,0.0,5892.0,1612.0,16112.0,-650.0,1099.0,idle
2026-10-07T00:37:24.211,17188.0,0.0,0.0,0.0,0.0,0.0,5912.0,1540.0,16124.0,-522.0,1062.0,idle
2026-10-07T00:37:24.260,17238.0,0.0,0.0,0.0,0.0,0.0,5952.0,1512.0,16176.0,-454.0,1002.0,idle
2026-10-07T00:37:24.307,17288.0,0.0,0.0,0.0,0.0,0.0,5928.0,1624.0,16024.0,-422.0,957.0,idle
2026-10-07T00:37:24.370,17338.0,0.0,0.0,0.0,0.0,0.0,6048.0,1664.0,16200.0,-495.0,1028.0,idle
2026-10-07T00:37:24.418,17388.0,0.0,0.0,0.0,0.0,0.0,6044.0,1520.0,16148.0,-516.0,1041.0,idle
2026-10-07T00:37:24.468,17438.0,0.0,0.0,0.0,0.0,0.0,5896.0,1640.0,16156.0,-511.0,1103.0,idle
2026-10-07T00:37:24.515,17488.0,0.0,0.0,0.0,0.0,0.0,5832.0,1652.0,16220.0,-510.0,1041.0,idle
2026-10-07T00:37:24.562,17538.0,0.0,0.0,0.0,0.0,0.0,5980.0,1612.0,16212.0,-501.0,867.0,idle
2026-10-07T00:37:24.613,17588.0,0.0,0.0,0.0,0.0,0.0,6056.0,1540.0,16092.0,-527.0,998.0,idle
2026-10-07T00:37:24.672,17638.0,0.0,0.0,0.0,0.0,0.0,5952.0,1628.0,16196.0,-492.0,1011.0,idle
2026-10-07T00:37:24.719,17688.0,0.0,0.0,0.0,0.0,0.0,5964.0,1648.0,16276.0,-480.0,1026.0,idle
2026-10-07T00:37:24.766,17738.0,0.0,0.0,0.0,0.0,0.0,5940.0,1628.0,16160.0,-548.0,1077.0,idle
2026-10-07T00:37:24.814,17788.0,0.0,0.0,0.0,0.0,0.0,5952.0,1496.0,16224.0,-445.0,1041.0,idle
2026-10-07T00:37:24.861,17838.0,0.0,0.0,0.0,0.0,0.0,5900.0,1756.0,16136.0,-576.0,1044.0,idle
2026-10-07T00:37:24.909,17888.0,0.0,0.0,0.0,0.0,0.0,5980.0,1480.0,16116.0,-566.0,1045.0,idle
2026-10-07T00:37:24.972,17938.0,0.0,0.0,0.0,0.0,0.0,5872.0,1572.0,16084.0,-510.0,1017.0,idle
2026-10-07T00:37:25.019,17988.0,0.0,0.0,0.0,0.0,0.0,5848.0,1580.0,16184.0,-457.0,914.0,idle
2026-10-07T00:37:25.060,18038.0,0.0,0.0,0.0,0.0,0.0,5988.0,1556.0,16084.0,-476.0,951.0,idle
2026-10-07T00:37:25.107,18088.0,0.0,0.0,0.0,0.0,0.0,5964.0,1600.0,16100.0,-505.0,1100.0,idle
2026-10-07T00:37:25.170,18138.0,0.0,0.0,0.0,0.0,0.0,5916.0,1508.0,16264.0,-512.0,1010.0,idle
2026-10-07T00:37:25.217,18188.0,0.0,0.0,0.0,0.0,0.0,5872.0,1436.0,16164.0,-455.0,1041.0,idle
2026-10-07T00:37:25.264,18238.0,0.0,0.0,0.0,0.0,0.0,5900.0,1684.0,16096.0,-420.0,1017.0,idle
2026-10-07T00:37:25.312,18288.0,0.0,0.0,0.0,0.0,0.0,5872.0,1656.0,16072.0,-477.0,991.0,idle
2026-10-07T00:37:25.361,18338.0,0.0,0.0,0.0,0.0,0.0,5932.0,1584.0,16088.0,-504.0,819.0,idle
2026-10-07T00:37:25.407,18388.0,0.0,0.0,0.0,0.0,0.0,6060.0,1484.0,16084.0,-426.0,912.0,idle
2026-10-07T00:37:25.470,18438.0,0.0,0.0,0.0,0.0,0.0,6000.0,1608.0,16112.0,-356.0,933.0,idle
2026-10-07T00:37:25.517,18488.0,0.0,0.0,0.0,0.0,0.0,6036.0,1712.0,16072.0,-529.0,987.0,idle
2026-10-07T00:37:25.563,18538.0,0.0,0.0,0.0,0.0,0.0,5976.0,1608.0,16036.0,-527.0,982.0,idle
2026-10-07T00:37:25.608,18588.0,0.0,0.0,0.0,0.0,0.0,6008.0,1576.0,16176.0,-468.0,924.0,idle
2026-10-07T00:37:25.656,18638.0,0.0,0.0,0.0,0.0,0.0,5900.0,1684.0,16104.0,-461.0,996.0,idle
2026-10-07T00:37:25.718,18688.0,0.0,0.0,0.0,0.0,0.0,5896.0,1632.0,16212.0,-537.0,968.0,idle
2026-10-07T00:37:25.765,18738.0,0.0,0.0,0.0,0.0,0.0,6060.0,1604.0,16128.0,-483.0,916.0,idle
2026-10-07T00:37:25.814,18788.0,0.0,0.0,0.0,0.0,0.0,6048.0,1536.0,16056.0,-457.0,1032.0,idle
2026-10-07T00:37:25.859,18838.0,0.0,0.0,0.0,0.0,0.0,5944.0,1684.0,16036.0,-514.0,948.0,idle
2026-10-07T00:37:25.923,18888.0,0.0,0.0,0.0,0.0,0.0,6068.0,1560.0,16172.0,-490.0,943.0,idle
2026-10-07T00:37:25.959,18938.0,0.0,0.0,0.0,0.0,0.0,6004.0,1664.0,16100.0,-537.0,937.0,idle
2026-10-07T00:37:26.018,18988.0,0.0,0.0,0.0,0.0,0.0,6008.0,1408.0,16168.0,-478.0,1013.0,idle
2026-10-07T00:37:26.069,19038.0,0.0,0.0,0.0,0.0,0.0,6032.0,1632.0,16068.0,-427.0,901.0,idle
2026-10-07T00:37:26.110,19088.0,0.0,0.0,0.0,0.0,0.0,6064.0,1644.0,16112.0,-455.0,916.0,idle
2026-10-07T00:37:26.173,19138.0,0.0,0.0,0.0,0.0,0.0,5984.0,1748.0,16104.0,-585.0,995.0,idle
2026-10-07T00:37:26.205,19188.0,0.0,0.0,0.0,0.0,0.0,6112.0,1528.0,16076.0,-469.0,952.0,idle
2026-10-07T00:37:26.267,19238.0,0.0,0.0,0.0,0.0,0.0,6104.0,1612.0,16116.0,-385.0,1005.0,idle
2026-10-07T00:37:26.315,19288.0,0.0,0.0,0.0,0.0,0.0,6048.0,1732.0,16064.0,-442.0,1022.0,idle
2026-10-07T00:37:26.362,19338.0,0.0,0.0,0.0,0.0,0.0,6072.0,1684.0,16060.0,-537.0,1065.0,idle
2026-10-07T00:37:26.409,19388.0,0.0,0.0,0.0,0.0,0.0,6032.0,1668.0,16060.0,-560.0,996.0,idle
2026-10-07T00:37:26.456,19438.0,0.0,0.0,0.0,0.0,0.0,6004.0,1472.0,16036.0,-495.0,1015.0,idle
2026-10-07T00:37:26.520,19488.0,0.0,0.0,0.0,0.0,0.0,5916.0,1652.0,16020.0,-504.0,1028.0,idle
2026-10-07T00:37:26.567,19538.0,0.0,0.0,0.0,0.0,0.0,5900.0,1600.0,16120.0,-533.0,1036.0,idle
2026-10-07T00:37:26.611,19588.0,0.0,0.0,0.0,0.0,0.0,6016.0,1664.0,16084.0,-531.0,1043.0,idle
2026-10-07T00:37:26.658,19638.0,0.0,0.0,0.0,0.0,0.0,6100.0,1560.0,16200.0,-402.0,1003.0,idle
2026-10-07T00:37:26.722,19688.0,0.0,0.0,0.0,0.0,0.0,5956.0,1688.0,16084.0,-508.0,1012.0,idle
2026-10-07T00:37:26.769,19738.0,0.0,0.0,0.0,0.0,0.0,6024.0,1644.0,16180.0,-562.0,1018.0,idle
2026-10-07T00:37:26.816,19788.0,0.0,0.0,0.0,0.0,0.0,6012.0,1544.0,16044.0,-486.0,1050.0,idle
2026-10-07T00:37:26.863,19838.0,0.0,0.0,0.0,0.0,0.0,5972.0,1692.0,16148.0,-502.0,1120.0,idle
2026-10-07T00:37:26.916,19888.0,0.0,0.0,0.0,0.0,0.0,5860.0,1672.0,16112.0,-561.0,987.0,idle
2026-10-07T00:37:26.968,19938.0,0.0,0.0,0.0,0.0,0.0,5972.0,1508.0,16092.0,-529.0,962.0,idle
