timestamp,t1,t2,t3,t4,t5,ax,ay,az,gx,gy,gz,label
2026-10-07T00:34:53.753,1187.0,0.0,0.0,0.0,0.0,0.0,5520.0,500.0,16488.0,-506.0,951.0,idle
2026-10-07T00:34:53.794,1237.0,0.0,0.0,0.0,0.0,0.0,5488.0,368.0,16372.0,-544.0,1008.0,idle
2026-10-07T00:34:53.845,1287.0,0.0,0.0,0.0,0.0,0.0,5484.0,352.0,16372.0,-533.0,978.0,idle
2026-10-07T00:34:53.891,1337.0,0.0,0.0,0.0,0.0,0.0,5560.0,292.0,16384.0,-536.0,1037.0,idle
2026-10-07T00:34:53.941,1387.0,0.0,0.0,0.0,0.0,0.0,5564.0,380.0,16280.0,-409.0,1105.0,idle
2026-10-07T00:34:53.992,1437.0,0.0,0.0,0.0,0.0,0.0,5400.0,420.0,16484.0,-533.0,1065.0,idle
2026-10-07T00:34:54.041,1487.0,0.0,0.0,0.0,0.0,0.0,5404.0,252.0,16324.0,-484.0,1067.0,idle
2026-10-07T00:34:54.091,1537.0,0.0,0.0,0.0,0.0,0.0,5556.0,240.0,16360.0,-458.0,1006.0,idle
2026-10-07T00:34:54.141,1587.0,0.0,0.0,0.0,0.0,0.0,5520.0,432.0,16396.0,-456.0,1095.0,idle
2026-10-07T00:34:54.190,1637.0,0.0,0.0,0.0,0.0,0.0,5464.0,464.0,16380.0,-498.0,1022.0,idle
2026-10-07T00:34:54.241,1687.0,0.0,0.0,0.0,0.0,0.0,5456.0,536.0,16640.0,-554.0,1046.0,idle
2026-10-07T00:34:54.290,1737.0,0.0,0.0,0.0,0.0,0.0,5472.0,292.0,16444.0,-519.0,1121.0,idle
2026-10-07T00:34:54.344,1787.0,0.0,0.0,0.0,0.0,0.0,5364.0,488.0,16416.0,-462.0,1048.0,idle
2026-10-07T00:34:54.390,1837.0,0.0,0.0,0.0,0.0,0.0,5376.0,512.0,16380.0,-503.0,939.0,idle
2026-10-07T00:34:54.441,1887.0,0.0,0.0,0.0,0.0,0.0,5360.0,432.0,16568.0,-495.0,957.0,idle
2026-10-07T00:34:54.491,1937.0,0.0,0.0,0.0,0.0,0.0,5352.0,448.0,16460.0,-496.0,894.0,idle
2026-10-07T00:34:54.540,1987.0,0.0,0.0,0.0,0.0,0.0,5476.0,380.0,16280.0,-523.0,785.0,idle
2026-10-07T00:34:54.590,2037.0,0.0,0.0,0.0,0.0,0.0,5604.0,352.0,16352.0,-460.0,975.0,idle
2026-10-07T00:34:54.641,2087.0,0.0,0.0,0.0,0.0,0.0,5608.0,392.0,16268.0,-483.0,1004.0,idle
2026-10-07T00:34:54.691,2137.0,0.0,0.0,0.0,0.0,0.0,5440.0,500.0,16444.0,-496.0,1102.0,idle
2026-10-07T00:34:54.744,2187.0,0.0,0.0,0.0,0.0,0.0,5400.0,512.0,16344.0,-497.0,1011.0,idle
2026-10-07T00:34:54.791,2237.0,0.0,0.0,0.0,0.0,0.0,5384.0,448.0,16328.0,-559.0,875.0,idle
2026-10-07T00:34:54.845,2287.0,0.0,0.0,0.0,0.0,0.0,5552.0,332.0,16380.0,-518.0,799.0,idle
2026-10-07T00:34:54.891,2337.0,0.0,0.0,0.0,0.0,0.0,5628.0,312.0,16360.0,-437.0,907.0,idle
2026-10-07T00:34:54.941,2387.0,0.0,0.0,0.0,0.0,0.0,5604.0,400.0,16236.0,-378.0,992.0,idle
2026-10-07T00:34:54.991,2437.0,0.0,0.0,0.0,0.0,0.0,5528.0,556.0,16356.0,-502.0,1056.0,idle
2026-10-07T00:34:55.041,2487.0,0.0,0.0,0.0,0.0,0.0,5488.0,384.0,16444.0,-574.0,1079.0,idle
2026-10-07T00:34:55.091,2537.0,0.0,0.0,0.0,0.0,0.0,5364.0,416.0,16532.0,-576.0,1073.0,idle
2026-10-07T00:34:55.141,2587.0,0.0,0.0,0.0,0.0,0.0,5396.0,412.0,16492.0,-395.0,990.0,idle
2026-10-07T00:34:55.191,2637.0,0.0,0.0,0.0,0.0,0.0,5492.0,244.0,16428.0,-565.0,996.0,idle
2026-10-07T00:34:55.241,2687.0,0.0,0.0,0.0,0.0,0.0,5576.0,556.0,16252.0,-569.0,1011.0,idle
2026-10-07T00:34:55.291,2737.0,0.0,0.0,0.0,0.0,0.0,5544.0,392.0,16284.0,-565.0,940.0,idle
2026-10-07T00:34:55.340,2787.0,0.0,0.0,0.0,0.0,0.0,5516.0,416.0,16420.0,-510.0,1052.0,idle
2026-10-07T00:34:55.391,2837.0,0.0,0.0,0.0,0.0,0.0,5536.0,352.0,16448.0,-472.0,957.0,idle
2026-10-07T00:34:55.441,2887.0,0.0,0.0,0.0,0.0,0.0,5508.0,416.0,16512.0,-426.0,968.0,idle
2026-10-07T00:34:55.491,2937.0,0.0,0.0,0.0,0.0,0.0,5480.0,316.0,16384.0,-472.0,1081.0,idle
2026-10-07T00:34:55.541,2987.0,0.0,0.0,0.0,0.0,0.0,5456.0,532.0,16380.0,-494.0,881.0,idle
2026-10-07T00:34:55.590,3037.0,0.0,0.0,0.0,0.0,0.0,5524.0,428.0,16500.0,-582.0,910.0,idle
2026-10-07T00:34:55.644,3087.0,0.0,0.0,0.0,0.0,0.0,5492.0,328.0,16456.0,-473.0,853.0,idle
2026-10-07T00:34:55.691,3137.0,0.0,0.0,0.0,0.0,0.0,5532.0,348.0,16328.0,-470.0,937.0,idle
2026-10-07T00:34:55.741,3187.0,0.0,0.0,0.0,0.0,0.0,5556.0,392.0,16280.0,-495.0,865.0,idle
2026-10-07T00:34:55.792,3237.0,0.0,0.0,0.0,0.0,0.0,5572.0,464.0,16276.0,-462.0,1004.0,idle
2026-10-07T00:34:55.843,3287.0,0.0,0.0,0.0,0.0,0.0,5508.0,532.0,16472.0,-569.0,1012.0,idle
2026-10-07T00:34:55.891,3337.0,0.0,0.0,0.0,0.0,0.0,5564.0,292.0,16368.0,-469.0,1007.0,idle
2026-10-07T00:34:55.944,3387.0,0.0,0.0,0.0,0.0,0.0,5504.0,444.0,16432.0,-414.0,987.0,idle
2026-10-07T00:34:55.992,3437.0,0.0,0.0,0.0,0.0,0.0,5412.0,468.0,16508.0,-502.0,1024.0,idle
2026-10-07T00:34:56.044,3487.0,0.0,0.0,0.0,0.0,0.0,5444.0,464.0,16416.0,-504.0,995.0,idle
2026-10-07T00:34:56.091,3537.0,0.0,0.0,0.0,0.0,0.0,5524.0,420.0,16472.0,-513.0,917.0,idle
2026-10-07T00:34:56.141,3587.0,0.0,0.0,0.0,0.0,0.0,5584.0,388.0,16472.0,-452.0,974.0,idle
2026-10-07T00:34:56.191,3637.0,0.0,0.0,0.0,0.0,0.0,5600.0,412.0,16496.0,-506.0,945.0,idle
2026-10-07T00:34:56.242,3687.0,0.0,0.0,0.0,0.0,0.0,5544.0,456.0,16376.0,-458.0,979.0,idle
2026-10-07T00:34:56.291,3737.0,0.0,0.0,0.0,0.0,0.0,5460.0,376.0,16492.0,-469.0,973.0,idle
2026-10-07T00:34:56.340,3787.0,0.0,0.0,0.0,0.0,0.0,5504.0,540.0,16384.0,-366.0,1043.0,idle
2026-10-07T00:34:56.392,3837.0,0.0,0.0,0.0,0.0,0.0,5492.0,508.0,16284.0,-468.0,997.0,idle
2026-10-07T00:34:56.442,3887.0,0.0,0.0,0.0,0.0,0.0,5440.0,536.0,16276.0,-608.0,985.0,idle
2026-10-07T00:34:56.490,3937.0,0.0,0.0,0.0,0.0,0.0,5484.0,412.0,16448.0,-511.0,928.0,idle
2026-10-07T00:34:56.541,3987.0,0.0,0.0,0.0,0.0,0.0,5568.0,276.0,16520.0,-482.0,958.0,idle
2026-10-07T00:34:56.591,4037.0,0.0,0.0,0.0,0.0,0.0,5528.0,432.0,16400.0,-449.0,983.0,idle
2026-10-07T00:34:56.641,4087.0,0.0,0.0,0.0,0.0,0.0,5548.0,508.0,16296.0,-459.0,1109.0,idle
2026-10-07T00:34:56.691,4137.0,0.0,0.0,0.0,0.0,0.0,5560.0,508.0,16472.0,-541.0,1032.0,idle
2026-10-07T00:34:56.745,4187.0,0.0,0.0,0.0,0.0,0.0,5468.0,348.0,16436.0,-554.0,935.0,idle
2026-10-07T00:34:56.791,4237.0,0.0,0.0,0.0,0.0,0.0,5516.0,472.0,16412.0,-505.0,1027.0,idle
2026-10-07T00:34:56.841,4287.0,0.0,0.0,0.0,0.0,0.0,5464.0,460.0,16416.0,-520.0,988.0,idle
2026-10-07T00:34:56.893,4337.0,0.0,0.0,0.0,0.0,0.0,5528.0,432.0,16480.0,-544.0,878.0,idle
2026-10-07T00:34:56.944,4387.0,0.0,0.0,0.0,0.0,0.0,5652.0,380.0,16504.0,-549.0,997.0,idle
2026-10-07T00:34:56.991,4437.0,0.0,0.0,0.0,0.0,0.0,5572.0,452.0,16384.0,-501.0,967.0,idle
2026-10-07T00:34:57.040,4487.0,0.0,0.0,0.0,0.0,0.0,5516.0,460.0,16472.0,-463.0,962.0,idle
2026-10-07T00:34:57.091,4537.0,0.0,0.0,0.0,0.0,0.0,5516.0,480.0,16432.0,-487.0,1049.0,idle
2026-10-07T00:34:57.141,4587.0,0.0,0.0,0.0,0.0,0.0,5600.0,424.0,16424.0,-500.0,1029.0,idle
2026-10-07T00:34:57.192,4637.0,0.0,0.0,0.0,0.0,0.0,5516.0,428.0,16348.0,-469.0,1023.0,idle
2026-10-07T00:34:57.243,4687.0,0.0,0.0,0.0,0.0,0.0,5480.0,452.0,16340.0,-535.0,981.0,idle
2026-10-07T00:34:57.292,4737.0,0.0,0.0,0.0,0.0,0.0,5548.0,320.0,16456.0,-492.0,1040.0,idle
2026-10-07T00:34:57.344,4787.0,0.0,0.0,0.0,0.0,0.0,5584.0,464.0,16428.0,-403.0,1044.0,idle
2026-10-07T00:34:57.390,4837.0,0.0,0.0,0.0,0.0,0.0,5440.0,508.0,16328.0,-483.0,999.0,idle
2026-10-07T00:34:57.441,4887.0,0.0,0.0,0.0,0.0,0.0,5508.0,416.0,16380.0,-503.0,1052.0,idle
2026-10-07T00:34:57.491,4937.0,0.0,0.0,0.0,0.0,0.0,5516.0,544.0,16416.0,-547.0,952.0,idle
2026-10-07T00:34:57.541,4987.0,0.0,0.0,0.0,0.0,0.0,5584.0,360.0,16264.0,-452.0,1100.0,idle
2026-10-07T00:34:57.594,5037.0,0.0,0.0,0.0,0.0,0.0,5516.0,496.0,16404.0,-444.0,975.0,idle
2026-10-07T00:34:57.640,5087.0,0.0,0.0,0.0,0.0,0.0,5480.0,548.0,16420.0,-464.0,1023.0,idle
2026-10-07T00:34:57.691,5137.0,0.0,0.0,0.0,0.0,0.0,5548.0,444.0,16468.0,-541.0,887.0,idle
2026-10-07T00:34:57.743,5187.0,0.0,0.0,0.0,0.0,0.0,5460.0,464.0,16360.0,-481.0,930.0,idle
2026-10-07T00:34:57.791,5237.0,0.0,0.0,0.0,0.0,0.0,5480.0,376.0,16376.0,-516.0,935.0,idle
2026-10-07T00:34:57.841,5287.0,0.0,0.0,0.0,0.0,0.0,5656.0,376.0,16400.0,-424.0,967.0,idle
2026-10-07T00:34:57.891,5337.0,0.0,0.0,0.0,0.0,0.0,5556.0,468.0,16376.0,-451.0,1009.0,idle
2026-10-07T00:34:57.940,5387.0,0.0,0.0,0.0,0.0,0.0,5604.0,464.0,16384.0,-430.0,993.0,idle
2026-10-07T00:34:57.992,5437.0,0.0,0.0,0.0,0.0,0.0,5504.0,524.0,16272.0,-528.0,1063.0,idle
2026-10-07T00:34:58.041,5487.0,0.0,0.0,0.0,0.0,0.0,5380.0,708.0,16468.0,-563.0,979.0,idle
2026-10-07T00:34:58.090,5537.0,0.0,0.0,0.0,0.0,0.0,5496.0,292.0,16300.0,-455.0,874.0,idle
2026-10-07T00:34:58.141,5587.0,0.0,0.0,0.0,0.0,0.0,5604.0,484.0,16312.0,-423.0,949.0,idle
2026-10-07T00:34:58.191,5637.0,0.0,0.0,0.0,0.0,0.0,5616.0,616.0,16276.0,-567.0,946.0,idle
2026-10-07T00:34:58.241,5687.0,0.0,0.0,0.0,0.0,0.0,5544.0,464.0,16280.0,-595.0,1148.0,idle
2026-10-07T00:34:58.290,5737.0,0.0,0.0,0.0,0.0,0.0,5504.0,432.0,16464.0,-484.0,975.0,idle
2026-10-07T00:34:58.343,5787.0,0.0,0.0,0.0,0.0,0.0,5472.0,540.0,16396.0,-455.0,966.0,idle
2026-10-07T00:34:58.391,5837.0,0.0,0.0,0.0,0.0,0.0,5420.0,536.0,16492.0,-418.0,955.0,idle
2026-10-07T00:34:58.442,5887.0,0.0,0.0,0.0,0.0,0.0,5504.0,620.0,16484.0,-611.0,774.0,idle
2026-10-07T00:34:58.490,5937.0,0.0,0.0,0.0,0.0,0.0,5700.0,320.0,16148.0,-598.0,797.0,idle
2026-10-07T00:34:58.543,5987.0,0.0,0.0,0.0,0.0,0.0,5792.0,412.0,16376.0,-497.0,992.0,idle
2026-10-07T00:34:58.591,6037.0,0.0,0.0,0.0,0.0,0.0,5672.0,292.0,16408.0,-529.0,1040.0,idle
2026-10-07T00:34:58.640,6087.0,0.0,0.0,0.0,0.0,0.0,5600.0,316.0,16380.0,-427.0,1021.0,idle
2026-10-07T00:34:58.691,6137.0,0.0,0.0,0.0,0.0,0.0,5608.0,548.0,16472.0,-434.0,973.0,idle
2026-10-07T00:34:58.744,6187.0,0.0,0.0,0.0,0.0,0.0,5580.0,480.0,16304.0,-453.0,963.0,idle
2026-10-07T00:34:58.790,6237.0,0.0,0.0,0.0,0.0,0.0,5716.0,784.0,16236.0,-569.0,1114.0,idle
2026-10-07T00:34:58.841,6287.0,0.0,0.0,0.0,0.0,0.0,5632.0,548.0,16328.0,-726.0,1132.0,idle
2026-10-07T00:34:58.890,6337.0,0.0,0.0,0.0,0.0,0.0,5572.0,268.0,16428.0,-663.0,1096.0,idle
2026-10-07T00:34:58.940,6387.0,0.0,0.0,0.0,0.0,0.0,5584.0,300.0,16460.0,-562.0,1076.0,idle
2026-10-07T00:34:58.991,6437.0,0.0,0.0,0.0,0.0,0.0,5528.0,308.0,16432.0,-390.0,1146.0,idle
2026-10-07T00:34:59.043,6487.0,0.0,0.0,0.0,0.0,0.0,5436.0,532.0,16344.0,-446.0,1050.0,idle
2026-10-07T00:34:59.091,6537.0,0.0,0.0,0.0,0.0,0.0,5500.0,556.0,16424.0,-471.0,1010.0,idle
2026-10-07T00:34:59.142,6587.0,0.0,0.0,0.0,0.0,0.0,5500.0,468.0,16364.0,-486.0,988.0,idle
2026-10-07T00:34:59.191,6637.0,0.0,0.0,0.0,0.0,0.0,5472.0,428.0,16280.0,-519.0,906.0,idle
2026-10-07T00:34:59.241,6687.0,0.0,0.0,0.0,0.0,0.0,5564.0,552.0,16420.0,-474.0,947.0,idle
2026-10-07T00:34:59.290,6737.0,0.0,0.0,0.0,0.0,0.0,5496.0,552.0,16380.0,-471.0,908.0,idle
2026-10-07T00:34:59.340,6787.0,0.0,0.0,0.0,0.0,0.0,5544.0,432.0,16340.0,-543.0,896.0,idle
2026-10-07T00:34:59.391,6837.0,0.0,0.0,0.0,0.0,0.0,5644.0,356.0,16392.0,-474.0,977.0,idle
2026-10-07T00:34:59.441,6887.0,0.0,0.0,0.0,0.0,0.0,5540.0,436.0,16400.0,-484.0,1048.0,idle
2026-10-07T00:34:59.489,6937.0,0.0,0.0,0.0,0.0,0.0,5564.0,456.0,16456.0,-425.0,1020.0,idle
2026-10-07T00:34:59.543,6987.0,0.0,0.0,0.0,0.0,0.0,5612.0,492.0,16420.0,-542.0,1002.0,idle
2026-10-07T00:34:59.591,7037.0,0.0,0.0,0.0,0.0,0.0,5496.0,132.0,16296.0,-648.0,1057.0,idle
2026-10-07T00:34:59.644,7087.0,0.0,0.0,0.0,0.0,0.0,5500.0,636.0,16300.0,-649.0,1024.0,idle
2026-10-07T00:34:59.690,7137.0,0.0,0.0,0.0,0.0,0.0,5540.0,592.0,16296.0,-426.0,1053.0,idle
2026-10-07T00:34:59.741,7187.0,0.0,0.0,0.0,0.0,0.0,5508.0,328.0,16268.0,-611.0,1014.0,idle
2026-10-07T00:34:59.790,7237.0,0.0,0.0,0.0,0.0,0.0,5588.0,504.0,16444.0,-398.0,1057.0,idle
2026-10-07T00:34:59.841,7287.0,0.0,0.0,0.0,0.0,0.0,5428.0,476.0,16196.0,-523.0,1110.0,idle
2026-10-07T00:34:59.891,7337.0,0.0,0.0,0.0,0.0,0.0,5496.0,528.0,16396.0,-463.0,1021.0,idle
2026-10-07T00:34:59.941,7387.0,0.0,0.0,0.0,0.0,0.0,5464.0,376.0,16420.0,-533.0,1067.0,idle
2026-10-07T00:34:59.990,7437.0,0.0,0.0,0.0,0.0,0.0,5468.0,424.0,16248.0,-492.0,1001.0,idle
2026-10-07T00:35:00.043,7487.0,0.0,0.0,0.0,0.0,0.0,5528.0,480.0,16252.0,-480.0,1026.0,idle
2026-10-07T00:35:00.090,7537.0,0.0,0.0,0.0,0.0,0.0,5472.0,548.0,16300.0,-465.0,1017.0,idle
2026-10-07T00:35:00.143,7587.0,0.0,0.0,0.0,0.0,0.0,5428.0,528.0,16408.0,-461.0,1009.0,idle
2026-10-07T00:35:00.190,7637.0,0.0,0.0,0.0,0.0,0.0,5420.0,484.0,16500.0,-489.0,926.0,idle
2026-10-07T00:35:00.243,7687.0,0.0,0.0,0.0,0.0,0.0,5504.0,564.0,16424.0,-460.0,950.0,idle
2026-10-07T00:35:00.290,7737.0,0.0,0.0,0.0,0.0,0.0,5536.0,420.0,16296.0,-501.0,954.0,idle
2026-10-07T00:35:00.340,7787.0,0.0,0.0,0.0,0.0,0.0,5420.0,556.0,16632.0,-554.0,1066.0,idle
2026-10-07T00:35:00.390,7837.0,0.0,0.0,0.0,0.0,0.0,5376.0,376.0,16556.0,-470.0,830.0,idle
2026-10-07T00:35:00.440,7887.0,0.0,0.0,0.0,0.0,0.0,5464.0,580.0,16472.0,-508.0,716.0,idle
2026-10-07T00:35:00.490,7937.0,0.0,0.0,0.0,0.0,0.0,5644.0,396.0,16212.0,-470.0,709.0,idle
2026-10-07T00:35:00.540,7987.0,0.0,0.0,0.0,0.0,0.0,5772.0,240.0,16196.0,-418.0,928.0,idle
2026-10-07T00:35:00.589,8037.0,0.0,0.0,0.0,0.0,0.0,5980.0,380.0,16220.0,-384.0,920.0,idle
2026-10-07T00:35:00.641,8087.0,0.0,0.0,0.0,0.0,0.0,5624.0,520.0,16280.0,-453.0,1088.0,idle
2026-10-07T00:35:00.693,8137.0,0.0,0.0,0.0,0.0,0.0,5476.0,584.0,16420.0,-551.0,1211.0,idle
2026-10-07T00:35:00.740,8187.0,0.0,0.0,0.0,0.0,0.0,5456.0,396.0,16584.0,-621.0,976.0,idle
2026-10-07T00:35:00.793,8237.0,0.0,0.0,0.0,0.0,0.0,5524.0,332.0,16296.0,-624.0,857.0,idle
2026-10-07T00:35:00.841,8287.0,0.0,0.0,0.0,0.0,0.0,5656.0,568.0,16296.0,-529.0,944.0,idle
2026-10-07T00:35:00.891,8337.0,0.0,0.0,0.0,0.0,0.0,5660.0,512.0,16312.0,-575.0,1038.0,idle
2026-10-07T00:35:00.941,8387.0,0.0,0.0,0.0,0.0,0.0,5568.0,448.0,16184.0,-544.0,1064.0,idle
2026-10-07T00:35:00.990,8437.0,0.0,0.0,0.0,0.0,0.0,5616.0,392.0,16408.0,-496.0,1087.0,idle
2026-10-07T00:35:01.040,8487.0,0.0,0.0,0.0,0.0,0.0,5524.0,560.0,16404.0,-446.0,1052.0,idle
2026-10-07T00:35:01.090,8537.0,0.0,0.0,0.0,0.0,0.0,5608.0,396.0,16408.0,-503.0,997.0,idle
2026-10-07T00:35:01.140,8587.0,0.0,0.0,0.0,0.0,0.0,5620.0,416.0,16252.0,-453.0,955.0,idle
2026-10-07T00:35:01.190,8637.0,0.0,0.0,0.0,0.0,0.0,5692.0,412.0,16420.0,-464.0,1050.0,idle
2026-10-07T00:35:01.240,8687.0,0.0,0.0,0.0,0.0,0.0,5620.0,448.0,16344.0,-508.0,1068.0,idle
2026-10-07T00:35:01.290,8737.0,0.0,0.0,0.0,0.0,0.0,5548.0,552.0,16396.0,-521.0,1068.0,idle
2026-10-07T00:35:01.340,8787.0,0.0,0.0,0.0,0.0,0.0,5508.0,428.0,16492.0,-494.0,1107.0,idle
2026-10-07T00:35:01.390,8837.0,0.0,0.0,0.0,0.0,0.0,5544.0,328.0,16404.0,-450.0,961.0,idle
2026-10-07T00:35:01.440,8887.0,0.0,0.0,0.0,0.0,0.0,5520.0,532.0,16416.0,-390.0,1073.0,idle
2026-10-07T00:35:01.493,8937.0,0.0,0.0,0.0,0.0,0.0,5584.0,524.0,16244.0,-492.0,1043.0,idle
2026-10-07T00:35:01.540,8987.0,0.0,0.0,0.0,0.0,0.0,5616.0,396.0,16328.0,-491.0,1011.0,idle
2026-10-07T00:35:01.593,9037.0,0.0,0.0,0.0,0.0,0.0,5528.0,524.0,16476.0,-429.0,1038.0,idle
2026-10-07T00:35:01.643,9087.0,0.0,0.0,0.0,0.0,0.0,5500.0,444.0,16324.0,-448.0,1016.0,idle
2026-10-07T00:35:01.694,9137.0,0.0,0.0,0.0,0.0,0.0,5408.0,544.0,16372.0,-474.0,900.0,idle
2026-10-07T00:35:01.744,9187.0,0.0,0.0,0.0,0.0,0.0,5504.0,496.0,16408.0,-439.0,879.0,idle
2026-10-07T00:35:01.790,9237.0,0.0,0.0,0.0,0.0,0.0,5556.0,408.0,16460.0,-393.0,945.0,idle
2026-10-07T00:35:01.840,9287.0,0.0,0.0,0.0,0.0,0.0,5648.0,384.0,16260.0,-437.0,926.0,idle
2026-10-07T00:35:01.890,9337.0,0.0,0.0,0.0,0.0,0.0,5656.0,512.0,16460.0,-499.0,998.0,idle
2026-10-07T00:35:01.939,9387.0,0.0,0.0,0.0,0.0,0.0,5560.0,416.0,16348.0,-537.0,981.0,idle
2026-10-07T00:35:01.990,9437.0,0.0,0.0,0.0,0.0,0.0,5584.0,556.0,16360.0,-556.0,1009.0,idle
2026-10-07T00:35:02.040,9487.0,0.0,0.0,0.0,0.0,0.0,5588.0,356.0,16332.0,-468.0,956.0,idle
2026-10-07T00:35:02.093,9537.0,0.0,0.0,0.0,0.0,0.0,5504.0,640.0,16376.0,-438.0,997.0,idle
2026-10-07T00:35:02.140,9587.0,0.0,0.0,0.0,0.0,0.0,5628.0,488.0,16344.0,-472.0,961.0,idle
2026-10-07T00:35:02.190,9637.0,0.0,0.0,0.0,0.0,0.0,5584.0,432.0,16364.0,-479.0,853.0,idle
2026-10-07T00:35:02.243,9687.0,0.0,0.0,0.0,0.0,0.0,5632.0,504.0,16452.0,-431.0,929.0,idle
2026-10-07T00:35:02.294,9737.0,0.0,0.0,0.0,0.0,0.0,5640.0,564.0,16352.0,-460.0,971.0,idle
2026-10-07T00:35:02.340,9787.0,0.0,0.0,0.0,0.0,0.0,5624.0,548.0,16272.0,-539.0,1026.0,idle
2026-10-07T00:35:02.389,9837.0,0.0,0.0,0.0,0.0,0.0,5588.0,452.0,16308.0,-507.0,977.0,idle
2026-10-07T00:35:02.441,9887.0,0.0,0.0,0.0,0.0,0.0,5556.0,440.0,16356.0,-456.0,1014.0,idle
2026-10-07T00:35:02.494,9937.0,0.0,0.0,0.0,0.0,0.0,5460.0,552.0,16368.0,-504.0,1028.0,idle
2026-10-07T00:35:02.541,9987.0,0.0,0.0,0.0,0.0,0.0,5516.0,552.0,16408.0,-459.0,995.0,idle
2026-10-07T00:35:02.593,10037.0,0.0,0.0,0.0,0.0,0.0,5620.0,464.0,16308.0,-486.0,848.0,idle
2026-10-07T00:35:02.639,10087.0,0.0,0.0,0.0,0.0,0.0,5636.0,408.0,16228.0,-433.0,943.0,idle
2026-10-07T00:35:02.690,10137.0,0.0,0.0,0.0,0.0,0.0,5592.0,500.0,16444.0,-399.0,1114.0,idle
2026-10-07T00:35:02.743,10187.0,0.0,0.0,0.0,0.0,0.0,5636.0,492.0,16292.0,-324.0,977.0,idle
2026-10-07T00:35:02.794,10237.0,0.0,0.0,0.0,0.0,0.0,5636.0,664.0,16332.0,-467.0,1074.0,idle
2026-10-07T00:35:02.844,10287.0,0.0,0.0,0.0,0.0,0.0,5552.0,596.0,16420.0,-490.0,1120.0,idle
2026-10-07T00:35:02.890,10337.0,0.0,0.0,0.0,0.0,0.0,5424.0,508.0,16380.0,-506.0,1048.0,idle
2026-10-07T00:35:02.943,10387.0,0.0,0.0,0.0,0.0,0.0,5612.0,480.0,16352.0,-489.0,877.0,idle
2026-10-07T00:35:02.990,10437.0,0.0,0.0,0.0,0.0,0.0,5716.0,604.0,16348.0,-465.0,1006.0,idle
2026-10-07T00:35:03.044,10487.0,0.0,0.0,0.0,0.0,0.0,5588.0,528.0,16388.0,-463.0,1066.0,idle
2026-10-07T00:35:03.090,10537.0,0.0,0.0,0.0,0.0,0.0,5608.0,592.0,16424.0,-550.0,1096.0,idle
2026-10-07T00:35:03.144,10587.0,0.0,0.0,0.0,0.0,0.0,5608.0,488.0,16264.0,-518.0,1073.0,idle
2026-10-07T00:35:03.189,10637.0,0.0,0.0,0.0,0.0,0.0,5480.0,544.0,16380.0,-492.0,995.0,idle
2026-10-07T00:35:03.243,10687.0,0.0,0.0,0.0,0.0,0.0,5496.0,572.0,16384.0,-485.0,1032.0,idle
2026-10-07T00:35:03.291,10737.0,0.0,0.0,0.0,0.0,0.0,5524.0,600.0,16444.0,-548.0,931.0,idle
2026-10-07T00:35:03.344,10787.0,0.0,0.0,0.0,0.0,0.0,5564.0,476.0,16340.0,-534.0,963.0,idle
2026-10-07T00:35:03.390,10837.0,0.0,0.0,0.0,0.0,0.0,5580.0,472.0,16308.0,-503.0,965.0,idle
2026-10-07T00:35:03.440,10887.0,0.0,0.0,0.0,0.0,0.0,5552.0,440.0,16288.0,-474.0,1027.0,idle
2026-10-07T00:35:03.491,10937.0,0.0,0.0,0.0,0.0,0.0,5624.0,640.0,16304.0,-461.0,1080.0,idle
2026-10-07T00:35:03.540,10987.0,0.0,0.0,0.0,0.0,0.0,5516.0,652.0,16384.0,-538.0,1000.0,idle
2026-10-07T00:35:03.590,11037.0,0.0,0.0,0.0,0.0,0.0,5584.0,496.0,16196.0,-530.0,964.0,idle
2026-10-07T00:35:03.643,11087.0,0.0,0.0,0.0,0.0,0.0,5600.0,464.0,16304.0,-501.0,917.0,idle
2026-10-07T00:35:03.691,11137.0,0.0,0.0,0.0,0.0,0.0,5680.0,560.0,16408.0,-495.0,996.0,idle
2026-10-07T00:35:03.744,11187.0,0.0,0.0,0.0,0.0,0.0,5552.0,568.0,16308.0,-464.0,984.0,idle
2026-10-07T00:35:03.790,11237.0,0.0,0.0,0.0,0.0,0.0,5528.0,460.0,16384.0,-508.0,1064.0,idle
2026-10-07T00:35:03.839,11287.0,0.0,0.0,0.0,0.0,0.0,5548.0,540.0,16396.0,-524.0,919.0,idle
2026-10-07T00:35:03.893,11337.0,0.0,0.0,0.0,0.0,0.0,5612.0,548.0,16372.0,-455.0,1043.0,idle
2026-10-07T00:35:03.943,11387.0,0.0,0.0,0.0,0.0,0.0,5556.0,592.0,16316.0,-481.0,1017.0,idle
2026-10-07T00:35:03.990,11437.0,0.0,0.0,0.0,0.0,0.0,5516.0,540.0,16340.0,-573.0,1066.0,idle
2026-10-07T00:35:04.042,11487.0,0.0,0.0,0.0,0.0,0.0,5564.0,552.0,16380.0,-525.0,998.0,idle
2026-10-07T00:35:04.089,11537.0,0.0,0.0,0.0,0.0,0.0,5616.0,376.0,16380.0,-449.0,1000.0,idle
2026-10-07T00:35:04.141,11587.0,0.0,0.0,0.0,0.0,0.0,5568.0,524.0,16452.0,-381.0,1089.0,idle
2026-10-07T00:35:04.190,11637.0,0.0,0.0,0.0,0.0,0.0,5588.0,536.0,16228.0,-441.0,1001.0,idle
2026-10-07T00:35:04.240,11687.0,0.0,0.0,0.0,0.0,0.0,5604.0,652.0,16344.0,-528.0,1001.0,idle
2026-10-07T00:35:04.289,11737.0,0.0,0.0,0.0,0.0,0.0,5508.0,612.0,16412.0,-522.0,1123.0,idle
2026-10-07T00:35:04.341,11787.0,0.0,0.0,0.0,0.0,0.0,5492.0,500.0,16332.0,-500.0,950.0,idle
2026-10-07T00:35:04.390,11837.0,0.0,0.0,0.0,0.0,0.0,5552.0,508.0,16376.0,-443.0,847.0,idle
2026-10-07T00:35:04.442,11887.0,0.0,0.0,0.0,0.0,0.0,5620.0,604.0,16424.0,-492.0,951.0,idle
2026-10-07T00:35:04.490,11937.0,0.0,0.0,0.0,0.0,0.0,5672.0,472.0,16248.0,-481.0,1045.0,idle
2026-10-07T00:35:04.544,11987.0,0.0,0.0,0.0,0.0,0.0,5580.0,492.0,16372.0,-544.0,1095.0,idle
2026-10-07T00:35:04.590,12037.0,0.0,0.0,0.0,0.0,0.0,5516.0,472.0,16492.0,-462.0,1016.0,idle
2026-10-07T00:35:04.643,12087.0,0.0,0.0,0.0,0.0,0.0,5520.0,620.0,16424.0,-499.0,969.0,idle
2026-10-07T00:35:04.690,12137.0,0.0,0.0,0.0,0.0,0.0,5608.0,600.0,16372.0,-393.0,1004.0,idle
2026-10-07T00:35:04.744,12187.0,0.0,0.0,0.0,0.0,0.0,5580.0,588.0,16308.0,-519.0,1063.0,idle
2026-10-07T00:35:04.790,12237.0,0.0,0.0,0.0,0.0,0.0,5604.0,480.0,16256.0,-600.0,919.0,idle
2026-10-07T00:35:04.843,12287.0,0.0,0.0,0.0,0.0,0.0,5600.0,404.0,16304.0,-504.0,971.0,idle
2026-10-07T00:35:04.891,12337.0,0.0,0.0,0.0,0.0,0.0,5564.0,484.0,16352.0,-404.0,953.0,idle
2026-10-07T00:35:04.941,12387.0,0.0,0.0,0.0,0.0,0.0,5592.0,448.0,16148.0,-411.0,963.0,idle
2026-10-07T00:35:04.993,12437.0,0.0,0.0,0.0,0.0,0.0,5544.0,624.0,16396.0,-518.0,1047.0,idle
2026-10-07T00:35:05.044,12487.0,0.0,0.0,0.0,0.0,0.0,5464.0,580.0,16344.0,-570.0,925.0,idle
2026-10-07T00:35:05.090,12537.0,0.0,0.0,0.0,0.0,0.0,5584.0,448.0,16280.0,-550.0,908.0,idle
2026-10-07T00:35:05.141,12587.0,0.0,0.0,0.0,0.0,0.0,5676.0,396.0,16340.0,-414.0,997.0,idle
2026-10-07T00:35:05.194,12637.0,0.0,0.0,0.0,0.0,0.0,5728.0,572.0,16236.0,-410.0,932.0,idle
2026-10-07T00:35:05.243,12687.0,0.0,0.0,0.0,0.0,0.0,5656.0,584.0,16320.0,-518.0,1033.0,idle
2026-10-07T00:35:05.290,12737.0,0.0,0.0,0.0,0.0,0.0,5612.0,476.0,16520.0,-556.0,1116.0,idle
2026-10-07T00:35:05.344,12787.0,0.0,0.0,0.0,0.0,0.0,5604.0,472.0,16476.0,-473.0,1001.0,idle
2026-10-07T00:35:05.390,12837.0,0.0,0.0,0.0,0.0,0.0,5568.0,604.0,16356.0,-470.0,964.0,idle
2026-10-07T00:35:05.440,12887.0,0.0,0.0,0.0,0.0,0.0,5604.0,576.0,16204.0,-495.0,1052.0,idle
2026-10-07T00:35:05.490,12937.0,0.0,0.0,0.0,0.0,0.0,5552.0,552.0,16432.0,-583.0,1004.0,idle
2026-10-07T00:35:05.543,12987.0,0.0,0.0,0.0,0.0,0.0,5564.0,568.0,16448.0,-548.0,1007.0,idle
2026-10-07T00:35:05.589,13037.0,0.0,0.0,0.0,0.0,0.0,5576.0,352.0,16292.0,-469.0,914.0,idle
2026-10-07T00:35:05.644,13087.0,0.0,0.0,0.0,0.0,0.0,5676.0,548.0,16324.0,-388.0,1037.0,idle
2026-10-07T00:35:05.694,13137.0,0.0,0.0,0.0,0.0,0.0,5628.0,796.0,16328.0,-463.0,1101.0,idle
2026-10-07T00:35:05.744,13187.0,0.0,0.0,0.0,0.0,0.0,5492.0,648.0,16328.0,-537.0,976.0,idle
2026-10-07T00:35:05.790,13237.0,0.0,0.0,0.0,0.0,0.0,5576.0,420.0,16384.0,-580.0,928.0,idle
2026-10-07T00:35:05.843,13287.0,0.0,0.0,0.0,0.0,0.0,5576.0,524.0,16324.0,-459.0,958.0,idle
2026-10-07T00:35:05.890,13337.0,0.0,0.0,0.0,0.0,0.0,5636.0,424.0,16336.0,-437.0,965.0,idle
2026-10-07T00:35:05.943,13387.0,0.0,0.0,0.0,0.0,0.0,5692.0,548.0,16368.0,-409.0,1007.0,idle
2026-10-07T00:35:05.991,13437.0,0.0,0.0,0.0,0.0,0.0,5580.0,716.0,16332.0,-415.0,989.0,idle
2026-10-07T00:35:06.044,13487.0,0.0,0.0,0.0,0.0,0.0,5472.0,548.0,16372.0,-479.0,1064.0,idle
2026-10-07T00:35:06.090,13537.0,0.0,0.0,0.0,0.0,0.0,5496.0,576.0,16396.0,-495.0,993.0,idle
2026-10-07T00:35:06.140,13587.0,0.0,0.0,0.0,0.0,0.0,5692.0,460.0,16256.0,-532.0,915.0,idle
2026-10-07T00:35:06.190,13637.0,0.0,0.0,0.0,0.0,0.0,5664.0,624.0,16368.0,-501.0,1007.0,idle
2026-10-07T00:35:06.240,13687.0,0.0,0.0,0.0,0.0,0.0,5556.0,544.0,16332.0,-495.0,1041.0,idle
2026-10-07T00:35:06.290,13737.0,0.0,0.0,0.0,0.0,0.0,5476.0,660.0,16264.0,-481.0,964.0,idle
2026-10-07T00:35:06.343,13787.0,0.0,0.0,0.0,0.0,0.0,5564.0,516.0,16360.0,-508.0,943.0,idle
2026-10-07T00:35:06.394,13837.0,0.0,0.0,0.0,0.0,0.0,5528.0,472.0,16300.0,-513.0,875.0,idle
2026-10-07T00:35:06.441,13887.0,0.0,0.0,0.0,0.0,0.0,5608.0,460.0,16296.0,-432.0,922.0,idle
2026-10-07T00:35:06.490,13937.0,0.0,0.0,0.0,0.0,0.0,5604.0,396.0,16548.0,-439.0,912.0,idle
2026-10-07T00:35:06.541,13987.0,0.0,0.0,0.0,0.0,0.0,5668.0,740.0,16288.0,-433.0,908.0,idle
2026-10-07T00:35:06.591,14037.0,0.0,0.0,0.0,0.0,0.0,5672.0,596.0,16128.0,-513.0,985.0,idle
2026-10-07T00:35:06.644,14087.0,0.0,0.0,0.0,0.0,0.0,5648.0,552.0,16304.0,-555.0,918.0,idle
2026-10-07T00:35:06.691,14137.0,0.0,0.0,0.0,0.0,0.0,5604.0,460.0,16472.0,-523.0,1028.0,idle
2026-10-07T00:35:06.740,14187.0,0.0,0.0,0.0,0.0,0.0,5684.0,564.0,16316.0,-515.0,946.0,idle
2026-10-07T00:35:06.791,14237.0,0.0,0.0,0.0,0.0,0.0,5572.0,540.0,16280.0,-473.0,1018.0,idle
2026-10-07T00:35:06.841,14287.0,0.0,0.0,0.0,0.0,0.0,5684.0,556.0,16300.0,-518.0,956.0,idle
2026-10-07T00:35:06.890,14337.0,0.0,0.0,0.0,0.0,0.0,5840.0,508.0,16184.0,-543.0,872.0,idle
2026-10-07T00:35:06.944,14387.0,0.0,0.0,0.0,0.0,0.0,5732.0,532.0,16240.0,-406.0,1094.0,idle
2026-10-07T00:35:06.990,14437.0,0.0,0.0,0.0,0.0,0.0,5672.0,520.0,16412.0,-511.0,1112.0,idle
2026-10-07T00:35:07.043,14487.0,0.0,0.0,0.0,0.0,0.0,5632.0,680.0,16352.0,-510.0,1062.0,idle
2026-10-07T00:35:07.091,14537.0,0.0,0.0,0.0,0.0,0.0,5684.0,576.0,16264.0,-483.0,1061.0,idle
2026-10-07T00:35:07.143,14587.0,0.0,0.0,0.0,0.0,0.0,5552.0,540.0,16488.0,-515.0,1040.0,idle
2026-10-07T00:35:07.190,14637.0,0.0,0.0,0.0,0.0,0.0,5628.0,544.0,16236.0,-465.0,995.0,idle
2026-10-07T00:35:07.243,14687.0,0.0,0.0,0.0,0.0,0.0,5672.0,564.0,16268.0,-575.0,1012.0,idle
2026-10-07T00:35:07.291,14737.0,0.0,0.0,0.0,0.0,0.0,5672.0,540.0,16272.0,-518.0,1007.0,idle
2026-10-07T00:35:07.341,14787.0,0.0,0.0,0.0,0.0,0.0,5652.0,752.0,16424.0,-518.0,1087.0,idle
2026-10-07T00:35:07.391,14837.0,0.0,0.0,0.0,0.0,0.0,5520.0,544.0,16324.0,-560.0,1026.0,idle
2026-10-07T00:35:07.444,14887.0,0.0,0.0,0.0,0.0,0.0,5556.0,516.0,16496.0,-468.0,992.0,idle
2026-10-07T00:35:07.490,14937.0,0.0,0.0,0.0,0.0,0.0,5596.0,544.0,16328.0,-502.0,912.0,idle
2026-10-07T00:35:07.544,14987.0,0.0,0.0,0.0,0.0,0.0,5676.0,668.0,16292.0,-491.0,896.0,idle
2026-10-07T00:35:07.590,15037.0,0.0,0.0,0.0,0.0,0.0,5640.0,536.0,16408.0,-540.0,1024.0,idle
2026-10-07T00:35:07.644,15087.0,0.0,0.0,0.0,0.0,0.0,5628.0,580.0,16388.0,-474.0,1092.0,idle
2026-10-07T00:35:07.690,15137.0,0.0,0.0,0.0,0.0,0.0,5576.0,628.0,16384.0,-465.0,1031.0,idle
2026-10-07T00:35:07.744,15187.0,0.0,0.0,0.0,0.0,0.0,5560.0,596.0,16240.0,-393.0,1074.0,idle
2026-10-07T00:35:07.794,15237.0,0.0,0.0,0.0,0.0,0.0,5616.0,664.0,16388.0,-511.0,1010.0,idle
2026-10-07T00:35:07.843,15287.0,0.0,0.0,0.0,0.0,0.0,5608.0,628.0,16312.0,-541.0,1046.0,idle
2026-10-07T00:35:07.893,15337.0,0.0,0.0,0.0,0.0,0.0,5548.0,452.0,16340.0,-485.0,966.0,idle
2026-10-07T00:35:07.940,15387.0,0.0,0.0,0.0,0.0,0.0,5664.0,520.0,16268.0,-501.0,860.0,idle
2026-10-07T00:35:07.993,15437.0,0.0,0.0,0.0,0.0,0.0,5668.0,676.0,16252.0,-448.0,1028.0,idle
2026-10-07T00:35:08.040,15487.0,0.0,0.0,0.0,0.0,0.0,5676.0,512.0,16248.0,-486.0,995.0,idle
2026-10-07T00:35:08.094,15537.0,0.0,0.0,0.0,0.0,0.0,5628.0,644.0,16296.0,-549.0,1124.0,idle
2026-10-07T00:35:08.140,15587.0,0.0,0.0,0.0,0.0,0.0,5532.0,456.0,16376.0,-539.0,1040.0,idle
2026-10-07T00:35:08.190,15637.0,0.0,0.0,0.0,0.0,0.0,5584.0,552.0,16396.0,-496.0,916.0,idle
2026-10-07T00:35:08.240,15687.0,0.0,0.0,0.0,0.0,0.0,5636.0,308.0,16264.0,-368.0,972.0,idle
2026-10-07T00:35:08.293,15737.0,0.0,0.0,0.0,0.0,0.0,5588.0,800.0,16092.0,-526.0,987.0,idle
2026-10-07T00:35:08.340,15787.0,0.0,0.0,0.0,0.0,0.0,5684.0,536.0,16316.0,-442.0,1028.0,idle
2026-10-07T00:35:08.394,15837.0,0.0,0.0,0.0,0.0,0.0,5636.0,692.0,16288.0,-396.0,1022.0,idle
2026-10-07T00:35:08.441,15887.0,0.0,0.0,0.0,0.0,0.0,5620.0,556.0,16388.0,-493.0,992.0,idle
2026-10-07T00:35:08.490,15937.0,0.0,0.0,0.0,0.0,0.0,5628.0,696.0,16404.0,-496.0,1064.0,idle
2026-10-07T00:35:08.540,15987.0,0.0,0.0,0.0,0.0,0.0,5656.0,500.0,16276.0,-525.0,933.0,idle
2026-10-07T00:35:08.591,16037.0,0.0,0.0,0.0,0.0,0.0,5696.0,720.0,16492.0,-494.0,961.0,idle
2026-10-07T00:35:08.641,16087.0,0.0,0.0,0.0,0.0,0.0,5664.0,612.0,16428.0,-539.0,944.0,idle
2026-10-07T00:35:08.691,16137.0,0.0,0.0,0.0,0.0,0.0,5668.0,572.0,16364.0,-573.0,1005.0,idle
2026-10-07T00:35:08.740,16187.0,0.0,0.0,0.0,0.0,0.0,5528.0,520.0,16216.0,-520.0,1049.0,idle
2026-10-07T00:35:08.793,16237.0,0.0,0.0,0.0,0.0,0.0,5660.0,496.0,16400.0,-457.0,901.0,idle
2026-10-07T00:35:08.841,16287.0,0.0,0.0,0.0,0.0,0.0,5736.0,620.0,16444.0,-488.0,1020.0,idle
2026-10-07T00:35:08.894,16337.0,0.0,0.0,0.0,0.0,0.0,5692.0,612.0,16368.0,-460.0,1154.0,idle
2026-10-07T00:35:08.940,16387.0,0.0,0.0,0.0,0.0,0.0,5624.0,604.0,16404.0,-550.0,1027.0,idle
2026-10-07T00:35:08.991,16437.0,0.0,0.0,0.0,0.0,0.0,5608.0,512.0,16520.0,-444.0,1017.0,idle
2026-10-07T00:35:09.040,16487.0,0.0,0.0,0.0,0.0,0.0,5580.0,684.0,16316.0,-423.0,978.0,idle
2026-10-07T00:35:09.093,16537.0,0.0,0.0,0.0,0.0,0.0,5640.0,664.0,16360.0,-515.0,990.0,idle
2026-10-07T00:35:09.141,16587.0,0.0,0.0,0.0,0.0,0.0,5624.0,576.0,16328.0,-507.0,1002.0,idle
2026-10-07T00:35:09.194,16637.0,0.0,0.0,0.0,0.0,0.0,5604.0,504.0,16420.0,-531.0,997.0,idle
2026-10-07T00:35:09.240,16687.0,0.0,0.0,0.0,0.0,0.0,5636.0,604.0,16320.0,-458.0,952.0,idle
2026-10-07T00:35:09.294,16737.0,0.0,0.0,0.0,0.0,0.0,5560.0,664.0,16216.0,-545.0,1060.0,idle
2026-10-07T00:35:09.340,16787.0,0.0,0.0,0.0,0.0,0.0,5564.0,624.0,16336.0,-530.0,936.0,idle
2026-10-07T00:35:09.390,16837.0,0.0,0.0,0.0,0.0,0.0,5600.0,540.0,16384.0,-506.0,930.0,idle
2026-10-07T00:35:09.439,16887.0,0.0,0.0,0.0,0.0,0.0,5696.0,520.0,16204.0,-479.0,930.0,idle
2026-10-07T00:35:09.493,16937.0,0.0,0.0,0.0,0.0,0.0,5692.0,512.0,16332.0,-540.0,940.0,idle
2026-10-07T00:35:09.540,16987.0,0.0,0.0,0.0,0.0,0.0,5604.0,584.0,16336.0,-474.0,1143.0,idle
2026-10-07T00:35:09.593,17037.0,0.0,0.0,0.0,0.0,0.0,5548.0,628.0,16288.0,-471.0,1037.0,idle
2026-10-07T00:35:09.641,17087.0,0.0,0.0,0.0,0.0,0.0,5584.0,564.0,16264.0,-495.0,1000.0,idle
2026-10-07T00:35:09.691,17137.0,0.0,0.0,0.0,0.0,0.0,5524.0,568.0,16264.0,-488.0,1006.0,idle
2026-10-07T00:35:09.741,17187.0,0.0,0.0,0.0,0.0,0.0,5720.0,604.0,16304.0,-461.0,934.0,idle
2026-10-07T00:35:09.790,17237.0,0.0,0.0,0.0,0.0,0.0,5672.0,628.0,16336.0,-538.0,971.0,idle
2026-10-07T00:35:09.840,17287.0,0.0,0.0,0.0,0.0,0.0,5592.0,624.0,16296.0,-514.0,1057.0,idle
2026-10-07T00:35:09.890,17337.0,0.0,0.0,0.0,0.0,0.0,5628.0,536.0,16440.0,-535.0,979.0,idle
2026-10-07T00:35:09.941,17387.0,0.0,0.0,0.0,0.0,0.0,5624.0,668.0,16392.0,-511.0,1035.0,idle
2026-10-07T00:35:09.994,17437.0,0.0,0.0,0.0,0.0,0.0,5612.0,672.0,16308.0,-500.0,963.0,idle
2026-10-07T00:35:10.040,17487.0,0.0,0.0,0.0,0.0,0.0,5612.0,628.0,16276.0,-605.0,946.0,idle
2026-10-07T00:35:10.093,17537.0,0.0,0.0,0.0,0.0,0.0,5640.0,568.0,16404.0,-459.0,1004.0,idle
2026-10-07T00:35:10.140,17587.0,0.0,0.0,0.0,0.0,0.0,5672.0,520.0,16276.0,-433.0,964.0,idle
2026-10-07T00:35:10.194,17637.0,0.0,0.0,0.0,0.0,0.0,5636.0,548.0,16332.0,-460.0,969.0,idle
2026-10-07T00:35:10.243,17687.0,0.0,0.0,0.0,0.0,0.0,5672.0,628.0,16384.0,-473.0,1011.0,idle
2026-10-07T00:35:10.293,17737.0,0.0,0.0,0.0,0.0,0.0,5660.0,692.0,16320.0,-505.0,1065.0,idle
2026-10-07T00:35:10.344,17787.0,0.0,0.0,0.0,0.0,0.0,5584.0,728.0,16420.0,-554.0,1046.0,idle
2026-10-07T00:35:10.391,17837.0,0.0,0.0,0.0,0.0,0.0,5660.0,508.0,16360.0,-561.0,999.0,idle
2026-10-07T00:35:10.440,17887.0,0.0,0.0,0.0,0.0,0.0,5668.0,424.0,16284.0,-457.0,945.0,idle
2026-10-07T00:35:10.491,17937.0,0.0,0.0,0.0,0.0,0.0,5752.0,628.0,16316.0,-439.0,960.0,idle
2026-10-07T00:35:10.540,17987.0,0.0,0.0,0.0,0.0,0.0,5716.0,612.0,16276.0,-488.0,946.0,idle
2026-10-07T00:35:10.591,18037.0,0.0,0.0,0.0,0.0,0.0,5620.0,640.0,16344.0,-544.0,1108.0,idle
2026-10-07T00:35:10.641,18087.0,0.0,0.0,0.0,0.0,0.0,5644.0,588.0,16528.0,-530.0,1052.0,idle
2026-10-07T00:35:10.694,18137.0,0.0,0.0,0.0,0.0,0.0,5564.0,648.0,16384.0,-499.0,1009.0,idle
2026-10-07T00:35:10.740,18187.0,0.0,0.0,0.0,0.0,0.0,5628.0,616.0,16320.0,-516.0,961.0,idle
2026-10-07T00:35:10.791,18237.0,0.0,0.0,0.0,0.0,0.0,5668.0,644.0,16324.0,-510.0,940.0,idle
2026-10-07T00:35:10.840,18287.0,0.0,0.0,0.0,0.0,0.0,5632.0,580.0,16432.0,-454.0,965.0,idle
2026-10-07T00:35:10.891,18337.0,0.0,0.0,0.0,0.0,0.0,5684.0,492.0,16264.0,-492.0,1025.0,idle
2026-10-07T00:35:10.941,18387.0,0.0,0.0,0.0,0.0,0.0,5592.0,552.0,16248.0,-500.0,1012.0,idle
2026-10-07T00:35:10.990,18437.0,0.0,0.0,0.0,0.0,0.0,5624.0,536.0,16396.0,-503.0,988.0,idle
2026-10-07T00:35:11.040,18487.0,0.0,0.0,0.0,0.0,0.0,5744.0,576.0,16320.0,-443.0,972.0,idle
2026-10-07T00:35:11.090,18537.0,0.0,0.0,0.0,0.0,0.0,5688.0,680.0,16276.0,-493.0,959.0,idle
2026-10-07T00:35:11.142,18587.0,0.0,0.0,0.0,0.0,0.0,5604.0,572.0,16380.0,-541.0,933.0,idle
2026-10-07T00:35:11.193,18637.0,0.0,0.0,0.0,0.0,0.0,5612.0,548.0,16392.0,-489.0,955.0,idle
2026-10-07T00:35:11.241,18687.0,0.0,0.0,0.0,0.0,0.0,5768.0,464.0,16384.0,-445.0,902.0,idle
2026-10-07T00:35:11.294,18737.0,0.0,0.0,0.0,0.0,0.0,5720.0,716.0,16228.0,-419.0,978.0,idle
2026-10-07T00:35:11.340,18787.0,0.0,0.0,0.0,0.0,0.0,5760.0,656.0,16200.0,-545.0,1058.0,idle
2026-10-07T00:35:11.390,18837.0,0.0,0.0,0.0,0.0,0.0,5744.0,416.0,16364.0,-516.0,1140.0,idle
2026-10-07T00:35:11.442,18887.0,0.0,0.0,0.0,0.0,0.0,5672.0,564.0,16328.0,-455.0,1140.0,idle
2026-10-07T00:35:11.490,18937.0,0.0,0.0,0.0,0.0,0.0,5644.0,660.0,16308.0,-406.0,1012.0,idle
2026-10-07T00:35:11.541,18987.0,0.0,0.0,0.0,0.0,0.0,5612.0,644.0,16336.0,-536.0,1003.0,idle
2026-10-07T00:35:11.590,19037.0,0.0,0.0,0.0,0.0,0.0,5676.0,552.0,16364.0,-451.0,993.0,idle
2026-10-07T00:35:11.643,19087.0,0.0,0.0,0.0,0.0,0.0,5688.0,648.0,16268.0,-544.0,997.0,idle
2026-10-07T00:35:11.692,19137.0,0.0,0.0,0.0,0.0,0.0,5616.0,436.0,16320.0,-504.0,1032.0,idle
2026-10-07T00:35:11.744,19187.0,0.0,0.0,0.0,0.0,0.0,5740.0,468.0,16296.0,-481.0,995.0,idle
2026-10-07T00:35:11.791,19237.0,0.0,0.0,0.0,0.0,0.0,5696.0,704.0,16352.0,-482.0,1096.0,idle
2026-10-07T00:35:11.840,19287.0,0.0,0.0,0.0,0.0,0.0,5572.0,628.0,16372.0,-515.0,1005.0,idle
2026-10-07T00:35:11.892,19337.0,0.0,0.0,0.0,0.0,0.0,5512.0,616.0,16380.0,-458.0,925.0,idle
2026-10-07T00:35:11.940,19387.0,0.0,0.0,0.0,0.0,0.0,5664.0,596.0,16352.0,-545.0,858.0,idle
2026-10-07T00:35:11.991,19437.0,0.0,0.0,0.0,0.0,0.0,5664.0,556.0,16316.0,-452.0,934.0,idle
2026-10-07T00:35:12.044,19487.0,0.0,0.0,0.0,0.0,0.0,5636.0,568.0,16248.0,-510.0,1050.0,idle
2026-10-07T00:35:12.092,19537.0,0.0,0.0,0.0,0.0,0.0,5620.0,756.0,16380.0,-484.0,1036.0,idle
2026-10-07T00:35:12.140,19587.0,0.0,0.0,0.0,0.0,0.0,5668.0,504.0,16264.0,-519.0,993.0,idle
2026-10-07T00:35:12.191,19637.0,0.0,0.0,0.0,0.0,0.0,5756.0,612.0,16252.0,-419.0,1033.0,idle
2026-10-07T00:35:12.240,19687.0,0.0,0.0,0.0,0.0,0.0,5596.0,724.0,16300.0,-463.0,1047.0,idle
2026-10-07T00:35:12.291,19737.0,0.0,0.0,0.0,0.0,0.0,5640.0,684.0,16276.0,-567.0,931.0,idle
2026-10-07T00:35:12.340,19787.0,0.0,0.0,0.0,0.0,0.0,5592.0,448.0,16356.0,-488.0,936.0,idle
2026-10-07T00:35:12.391,19837.0,0.0,0.0,0.0,0.0,0.0,5652.0,616.0,16380.0,-424.0,970.0,idle
2026-10-07T00:35:12.441,19887.0,0.0,0.0,0.0,0.0,0.0,5708.0,712.0,16276.0,-507.0,962.0,idle
