timestamp,t1,t2,t3,t4,t5,ax,ay,az,gx,gy,gz,label
2026-10-07T00:50:01.409,1189.0,0.0,0.0,0.0,0.0,0.0,5632.0,2644.0,16088.0,-389.0,884.0,idle
2026-10-07T00:50:01.446,1239.0,0.0,0.0,0.0,0.0,0.0,5684.0,2528.0,16068.0,-499.0,1003.0,idle
2026-10-07T00:50:01.500,1289.0,0.0,0.0,0.0,0.0,0.0,5520.0,2636.0,16100.0,-503.0,951.0,idle
2026-10-07T00:50:01.547,1339.0,0.0,0.0,0.0,0.0,0.0,5656.0,2348.0,16084.0,-631.0,836.0,idle
2026-10-07T00:50:01.601,1389.0,0.0,0.0,0.0,0.0,0.0,5580.0,2504.0,16100.0,-641.0,965.0,idle
2026-10-07T00:50:01.647,1439.0,0.0,0.0,0.0,0.0,0.0,5544.0,2568.0,16124.0,-510.0,875.0,idle
2026-10-07T00:50:01.700,1489.0,0.0,0.0,0.0,0.0,0.0,5572.0,2452.0,16260.0,-610.0,1112.0,idle
2026-10-07T00:50:01.749,1539.0,0.0,0.0,0.0,0.0,0.0,5692.0,2272.0,15904.0,-542.0,889.0,idle
2026-10-07T00:50:01.798,1589.0,0.0,0.0,0.0,0.0,0.0,5596.0,2484.0,16252.0,-488.0,1036.0,idle
2026-10-07T00:50:01.846,1639.0,0.0,0.0,0.0,0.0,0.0,5484.0,2564.0,16084.0,-525.0,983.0,idle
2026-10-07T00:50:01.896,1689.0,0.0,0.0,0.0,0.0,0.0,5588.0,2568.0,16204.0,-345.0,1001.0,idle
2026-10-07T00:50:01.946,1739.0,0.0,0.0,0.0,0.0,0.0,5712.0,2420.0,16188.0,-530.0,791.0,idle
2026-10-07T00:50:02.000,1789.0,0.0,0.0,0.0,0.0,0.0,5696.0,2644.0,16252.0,-510.0,1165.0,idle
2026-10-07T00:50:02.047,1839.0,0.0,0.0,0.0,0.0,0.0,5504.0,2456.0,16156.0,-494.0,1137.0,idle
2026-10-07T00:50:02.097,1889.0,0.0,0.0,0.0,0.0,0.0,5468.0,2668.0,16308.0,-491.0,1023.0,idle
2026-10-07T00:50:02.147,1939.0,0.0,0.0,0.0,0.0,0.0,5516.0,2452.0,16184.0,-501.0,1000.0,idle
2026-10-07T00:50:02.197,1989.0,0.0,0.0,0.0,0.0,0.0,5508.0,2564.0,16156.0,-459.0,989.0,idle
2026-10-07T00:50:02.247,2039.0,0.0,0.0,0.0,0.0,0.0,5544.0,2348.0,16188.0,-498.0,811.0,idle
2026-10-07T00:50:02.296,2089.0,0.0,0.0,0.0,0.0,0.0,5624.0,2440.0,16164.0,-434.0,772.0,idle
2026-10-07T00:50:02.346,2139.0,0.0,0.0,0.0,0.0,0.0,5576.0,2640.0,16116.0,-359.0,1048.0,idle
2026-10-07T00:50:02.397,2189.0,0.0,0.0,0.0,0.0,0.0,5572.0,2700.0,16088.0,-423.0,934.0,idle
2026-10-07T00:50:02.447,2239.0,0.0,0.0,0.0,0.0,0.0,5596.0,2540.0,16196.0,-566.0,882.0,idle
2026-10-07T00:50:02.497,2289.0,0.0,0.0,0.0,0.0,0.0,5572.0,2484.0,16128.0,-484.0,975.0,idle
2026-10-07T00:50:02.548,2339.0,0.0,0.0,0.0,0.0,0.0,5660.0,2600.0,16108.0,-342.0,866.0,idle
2026-10-07T00:50:02.596,2389.0,0.0,0.0,0.0,0.0,0.0,5664.0,2664.0,16216.0,-487.0,1102.0,idle
2026-10-07T00:50:02.649,2439.0,0.0,0.0,0.0,0.0,0.0,5656.0,2600.0,16108.0,-559.0,1011.0,idle
2026-10-07T00:50:02.696,2489.0,0.0,0.0,0.0,0.0,0.0,5676.0,2488.0,15948.0,-366.0,905.0,idle
2026-10-07T00:50:02.747,2539.0,0.0,0.0,0.0,0.0,0.0,5804.0,2508.0,16128.0,-479.0,955.0,idle
2026-10-07T00:50:02.797,2589.0,0.0,0.0,0.0,0.0,0.0,5716.0,2768.0,16132.0,-306.0,973.0,idle
2026-10-07T00:50:02.847,2639.0,0.0,0.0,0.0,0.0,0.0,5500.0,2720.0,16196.0,-331.0,1032.0,idle
2026-10-07T00:50:02.896,2689.0,0.0,0.0,0.0,0.0,0.0,5576.0,2712.0,16100.0,-507.0,862.0,idle
2026-10-07T00:50:02.947,2739.0,0.0,0.0,0.0,0.0,0.0,5788.0,2508.0,16156.0,-422.0,819.0,idle
2026-10-07T00:50:02.997,2789.0,0.0,0.0,0.0,0.0,0.0,5740.0,2772.0,16112.0,-445.0,993.0,idle
2026-10-07T00:50:03.047,2839.0,0.0,0.0,0.0,0.0,0.0,5760.0,2708.0,16232.0,-457.0,698.0,idle
2026-10-07T00:50:03.097,2889.0,0.0,0.0,0.0,0.0,0.0,5676.0,2740.0,16140.0,-477.0,1306.0,idle
2026-10-07T00:50:03.150,2939.0,0.0,0.0,0.0,0.0,0.0,5620.0,2704.0,16016.0,-491.0,881.0,idle
2026-10-07T00:50:03.198,2989.0,0.0,0.0,0.0,0.0,0.0,5660.0,2712.0,16152.0,-479.0,872.0,idle
2026-10-07T00:50:03.248,3039.0,0.0,0.0,0.0,0.0,0.0,5728.0,2692.0,16032.0,-497.0,899.0,idle
2026-10-07T00:50:03.297,3089.0,0.0,0.0,0.0,0.0,0.0,5796.0,2756.0,15904.0,-392.0,909.0,idle
2026-10-07T00:50:03.347,3139.0,0.0,0.0,0.0,0.0,0.0,5816.0,2852.0,15972.0,-602.0,900.0,idle
2026-10-07T00:50:03.396,3189.0,0.0,0.0,0.0,0.0,0.0,5840.0,2764.0,16072.0,-630.0,1067.0,idle
2026-10-07T00:50:03.447,3239.0,0.0,0.0,0.0,0.0,0.0,5864.0,2644.0,16064.0,-787.0,1100.0,idle
2026-10-07T00:50:03.500,3289.0,0.0,0.0,0.0,0.0,0.0,5776.0,2668.0,16120.0,-694.0,1414.0,idle
2026-10-07T00:50:03.547,3339.0,0.0,0.0,0.0,0.0,0.0,5636.0,2700.0,16060.0,-943.0,1343.0,idle
2026-10-07T00:50:03.600,3389.0,0.0,0.0,0.0,0.0,0.0,5572.0,2760.0,16260.0,-815.0,1406.0,idle
2026-10-07T00:50:03.648,3439.0,0.0,0.0,0.0,0.0,0.0,5500.0,2420.0,16068.0,-808.0,1309.0,idle
2026-10-07T00:50:03.699,3489.0,0.0,0.0,0.0,0.0,0.0,5552.0,2488.0,16216.0,-494.0,885.0,idle
2026-10-07T00:50:03.748,3539.0,0.0,0.0,0.0,0.0,0.0,5500.0,2448.0,16048.0,-564.0,1237.0,idle
2026-10-07T00:50:03.797,3589.0,0.0,0.0,0.0,0.0,0.0,5292.0,2500.0,16112.0,-583.0,1244.0,idle
2026-10-07T00:50:03.847,3639.0,0.0,0.0,0.0,0.0,0.0,5364.0,2524.0,16124.0,-455.0,1010.0,idle
2026-10-07T00:50:03.891,3689.0,0.0,0.0,0.0,0.0,0.0,5356.0,2536.0,16180.0,-580.0,1114.0,idle
2026-10-07T00:50:03.947,3739.0,0.0,0.0,0.0,0.0,0.0,5492.0,2464.0,16128.0,-531.0,976.0,idle
2026-10-07T00:50:03.997,3789.0,0.0,0.0,0.0,0.0,0.0,5536.0,2372.0,16180.0,-365.0,920.0,idle
2026-10-07T00:50:04.047,3839.0,0.0,0.0,0.0,0.0,0.0,5420.0,2668.0,16148.0,-399.0,1113.0,idle
2026-10-07T00:50:04.100,3889.0,0.0,0.0,0.0,0.0,0.0,5416.0,2580.0,16264.0,-371.0,964.0,idle
2026-10-07T00:50:04.147,3939.0,0.0,0.0,0.0,0.0,0.0,5420.0,2784.0,16324.0,-560.0,927.0,idle
2026-10-07T00:50:04.197,3989.0,0.0,0.0,0.0,0.0,0.0,5316.0,2440.0,16280.0,-508.0,1105.0,idle
2026-10-07T00:50:04.247,4039.0,0.0,0.0,0.0,0.0,0.0,5444.0,2392.0,16244.0,-209.0,996.0,idle
2026-10-07T00:50:04.300,4089.0,0.0,0.0,0.0,0.0,0.0,5376.0,2884.0,16160.0,-161.0,1200.0,idle
2026-10-07T00:50:04.347,4139.0,0.0,0.0,0.0,0.0,0.0,5480.0,2344.0,16060.0,-36.0,897.0,idle
2026-10-07T00:50:04.398,4189.0,0.0,0.0,0.0,0.0,0.0,5596.0,3100.0,16232.0,-226.0,1017.0,idle
2026-10-07T00:50:04.448,4239.0,0.0,0.0,0.0,0.0,0.0,5556.0,2824.0,15972.0,-537.0,1231.0,idle
2026-10-07T00:50:04.500,4289.0,0.0,0.0,0.0,0.0,0.0,5536.0,2844.0,16148.0,-500.0,1143.0,idle
2026-10-07T00:50:04.547,4339.0,0.0,0.0,0.0,0.0,0.0,5552.0,2692.0,16124.0,-463.0,1317.0,idle
2026-10-07T00:50:04.596,4389.0,0.0,0.0,0.0,0.0,0.0,5360.0,2720.0,16104.0,-466.0,1304.0,idle
2026-10-07T00:50:04.646,4439.0,0.0,0.0,0.0,0.0,0.0,5292.0,2820.0,16316.0,-496.0,1330.0,idle
2026-10-07T00:50:04.697,4489.0,0.0,0.0,0.0,0.0,0.0,5092.0,2760.0,16316.0,-637.0,1240.0,idle
2026-10-07T00:50:04.747,4539.0,0.0,0.0,0.0,0.0,0.0,5268.0,2652.0,16392.0,-447.0,1310.0,idle
2026-10-07T00:50:04.800,4589.0,0.0,0.0,0.0,0.0,0.0,5420.0,2528.0,16216.0,-426.0,1295.0,idle
2026-10-07T00:50:04.847,4639.0,0.0,0.0,0.0,0.0,0.0,5212.0,3024.0,16168.0,-299.0,1376.0,idle
2026-10-07T00:50:04.896,4689.0,0.0,0.0,0.0,0.0,0.0,5184.0,2688.0,16224.0,-516.0,1361.0,idle
2026-10-07T00:50:04.950,4739.0,0.0,0.0,0.0,0.0,0.0,5236.0,2868.0,16192.0,-636.0,1254.0,idle
2026-10-07T00:50:04.997,4789.0,0.0,0.0,0.0,0.0,0.0,5112.0,2728.0,16148.0,-588.0,1373.0,idle
2026-10-07T00:50:05.046,4839.0,0.0,0.0,0.0,0.0,0.0,5128.0,2708.0,16396.0,-618.0,1442.0,idle
2026-10-07T00:50:05.098,4889.0,0.0,0.0,0.0,0.0,0.0,4992.0,2680.0,16336.0,-632.0,1433.0,idle
2026-10-07T00:50:05.151,4939.0,0.0,0.0,0.0,0.0,0.0,4900.0,2752.0,16360.0,-461.0,1519.0,idle
2026-10-07T00:50:05.197,4989.0,0.0,0.0,0.0,0.0,0.0,4944.0,2620.0,16636.0,-313.0,1322.0,idle
2026-10-07T00:50:05.247,5039.0,0.0,0.0,0.0,0.0,0.0,4692.0,2620.0,16472.0,-452.0,1046.0,idle
2026-10-07T00:50:05.297,5089.0,0.0,0.0,0.0,0.0,0.0,4956.0,2440.0,16316.0,-368.0,961.0,idle
2026-10-07T00:50:05.347,5139.0,0.0,0.0,0.0,0.0,0.0,4936.0,2748.0,16324.0,-408.0,1064.0,idle
2026-10-07T00:50:05.400,5189.0,0.0,0.0,0.0,0.0,0.0,4912.0,2888.0,16396.0,-468.0,904.0,idle
2026-10-07T00:50:05.448,5239.0,0.0,0.0,0.0,0.0,0.0,5056.0,2648.0,16464.0,-505.0,1231.0,idle
2026-10-07T00:50:05.497,5289.0,0.0,0.0,0.0,0.0,0.0,4996.0,2764.0,16288.0,-509.0,1198.0,idle
2026-10-07T00:50:05.547,5339.0,0.0,0.0,0.0,0.0,0.0,4932.0,2640.0,16460.0,-562.0,1182.0,idle
2026-10-07T00:50:05.597,5389.0,0.0,0.0,0.0,0.0,0.0,4716.0,2824.0,16316.0,-675.0,1161.0,idle
2026-10-07T00:50:05.650,5439.0,0.0,0.0,0.0,0.0,0.0,4760.0,2732.0,16396.0,-641.0,1040.0,idle
2026-10-07T00:50:05.697,5489.0,0.0,0.0,0.0,0.0,0.0,4564.0,2680.0,16392.0,-511.0,1146.0,idle
2026-10-07T00:50:05.750,5539.0,0.0,0.0,0.0,0.0,0.0,4808.0,2612.0,16228.0,-553.0,810.0,idle
2026-10-07T00:50:05.797,5589.0,0.0,0.0,0.0,0.0,0.0,5060.0,2760.0,16608.0,-336.0,785.0,idle
2026-10-07T00:50:05.847,5639.0,0.0,0.0,0.0,0.0,0.0,4980.0,2608.0,16324.0,-414.0,922.0,idle
2026-10-07T00:50:05.897,5689.0,0.0,0.0,0.0,0.0,0.0,4936.0,2840.0,16360.0,-543.0,1053.0,idle
2026-10-07T00:50:05.947,5739.0,0.0,0.0,0.0,0.0,0.0,4804.0,2648.0,16332.0,-622.0,1035.0,idle
2026-10-07T00:50:05.997,5789.0,0.0,0.0,0.0,0.0,0.0,4852.0,2624.0,16340.0,-641.0,980.0,idle
2026-10-07T00:50:06.046,5839.0,0.0,0.0,0.0,0.0,0.0,4816.0,2528.0,16304.0,-613.0,985.0,idle
2026-10-07T00:50:06.097,5889.0,0.0,0.0,0.0,0.0,0.0,4872.0,2524.0,16392.0,-387.0,1010.0,idle
2026-10-07T00:50:06.150,5939.0,0.0,0.0,0.0,0.0,0.0,4796.0,2756.0,16216.0,-583.0,787.0,idle
2026-10-07T00:50:06.197,5989.0,0.0,0.0,0.0,0.0,0.0,4620.0,2828.0,16444.0,-590.0,900.0,idle
2026-10-07T00:50:06.250,6039.0,0.0,0.0,0.0,0.0,0.0,4760.0,2372.0,16380.0,-384.0,574.0,idle
2026-10-07T00:50:06.298,6089.0,0.0,0.0,0.0,0.0,0.0,5072.0,2752.0,16172.0,-400.0,688.0,idle
2026-10-07T00:50:06.350,6139.0,0.0,0.0,0.0,0.0,0.0,5224.0,2624.0,16196.0,-355.0,710.0,idle
2026-10-07T00:50:06.397,6189.0,0.0,0.0,0.0,0.0,0.0,5264.0,2616.0,16260.0,-444.0,908.0,idle
2026-10-07T00:50:06.450,6239.0,0.0,0.0,0.0,0.0,0.0,5076.0,2632.0,16280.0,-450.0,1226.0,idle
2026-10-07T00:50:06.497,6289.0,0.0,0.0,0.0,0.0,0.0,5032.0,2664.0,16344.0,-552.0,1117.0,idle
2026-10-07T00:50:06.550,6339.0,0.0,0.0,0.0,0.0,0.0,4920.0,2732.0,16168.0,-530.0,1099.0,idle
2026-10-07T00:50:06.597,6389.0,0.0,0.0,0.0,0.0,0.0,4776.0,2596.0,16516.0,-568.0,949.0,idle
2026-10-07T00:50:06.647,6439.0,0.0,0.0,0.0,0.0,0.0,4924.0,2412.0,16384.0,-429.0,915.0,idle
2026-10-07T00:50:06.700,6489.0,0.0,0.0,0.0,0.0,0.0,5004.0,2692.0,16328.0,-337.0,870.0,idle
2026-10-07T00:50:06.747,6539.0,0.0,0.0,0.0,0.0,0.0,5012.0,2608.0,16228.0,-349.0,949.0,idle
2026-10-07T00:50:06.799,6589.0,0.0,0.0,0.0,0.0,0.0,5024.0,2828.0,16268.0,-482.0,794.0,idle
2026-10-07T00:50:06.846,6639.0,0.0,0.0,0.0,0.0,0.0,5116.0,2512.0,16264.0,-448.0,931.0,idle
2026-10-07T00:50:06.900,6689.0,0.0,0.0,0.0,0.0,0.0,5092.0,2748.0,16160.0,-479.0,899.0,idle
2026-10-07T00:50:06.947,6739.0,0.0,0.0,0.0,0.0,0.0,5136.0,2844.0,16348.0,-505.0,917.0,idle
2026-10-07T00:50:07.000,6789.0,0.0,0.0,0.0,0.0,0.0,5108.0,2620.0,16440.0,-579.0,1095.0,idle
2026-10-07T00:50:07.046,6839.0,0.0,0.0,0.0,0.0,0.0,4912.0,2652.0,16204.0,-397.0,1141.0,idle
2026-10-07T00:50:07.100,6889.0,0.0,0.0,0.0,0.0,0.0,5080.0,2516.0,16364.0,-366.0,843.0,idle
2026-10-07T00:50:07.148,6939.0,0.0,0.0,0.0,0.0,0.0,5076.0,2892.0,16172.0,-427.0,1061.0,idle
2026-10-07T00:50:07.197,6989.0,0.0,0.0,0.0,0.0,0.0,5028.0,2848.0,16216.0,-506.0,1010.0,idle
2026-10-07T00:50:07.244,7039.0,0.0,0.0,0.0,0.0,0.0,5116.0,2692.0,16272.0,-479.0,934.0,idle
2026-10-07T00:50:07.300,7089.0,0.0,0.0,0.0,0.0,0.0,5024.0,2764.0,16280.0,-554.0,1039.0,idle
2026-10-07T00:50:07.345,7139.0,0.0,0.0,0.0,0.0,0.0,5104.0,2592.0,16352.0,-477.0,851.0,idle
2026-10-07T00:50:07.399,7189.0,0.0,0.0,0.0,0.0,0.0,5028.0,2840.0,16372.0,-419.0,892.0,idle
2026-10-07T00:50:07.446,7239.0,0.0,0.0,0.0,0.0,0.0,5052.0,2856.0,16160.0,-583.0,991.0,idle
2026-10-07T00:50:07.497,7289.0,0.0,0.0,0.0,0.0,0.0,5160.0,2572.0,16344.0,-455.0,790.0,idle
2026-10-07T00:50:07.547,7339.0,0.0,0.0,0.0,0.0,0.0,5076.0,2688.0,16320.0,-452.0,1115.0,idle
2026-10-07T00:50:07.596,7389.0,0.0,0.0,0.0,0.0,0.0,5108.0,2624.0,16176.0,-304.0,855.0,idle
2026-10-07T00:50:07.648,7439.0,0.0,0.0,0.0,0.0,0.0,5188.0,2904.0,16272.0,-439.0,972.0,idle
2026-10-07T00:50:07.695,7489.0,0.0,0.0,0.0,0.0,0.0,5200.0,2728.0,16320.0,-590.0,1081.0,idle
2026-10-07T00:50:07.746,7539.0,0.0,0.0,0.0,0.0,0.0,5188.0,2660.0,16304.0,-611.0,1035.0,idle
2026-10-07T00:50:07.796,7589.0,0.0,0.0,0.0,0.0,0.0,4984.0,2584.0,16480.0,-582.0,1148.0,idle
2026-10-07T00:50:07.850,7639.0,0.0,0.0,0.0,0.0,0.0,4956.0,2732.0,16268.0,-501.0,1186.0,idle
2026-10-07T00:50:07.897,7689.0,0.0,0.0,0.0,0.0,0.0,4988.0,2728.0,16248.0,-461.0,958.0,idle
2026-10-07T00:50:07.947,7739.0,0.0,0.0,0.0,0.0,0.0,5160.0,2668.0,16344.0,-433.0,925.0,idle
2026-10-07T00:50:07.995,7789.0,0.0,0.0,0.0,0.0,0.0,5184.0,2628.0,16296.0,-462.0,927.0,idle
2026-10-07T00:50:08.050,7839.0,0.0,0.0,0.0,0.0,0.0,4872.0,2956.0,15984.0,-530.0,939.0,idle
2026-10-07T00:50:08.096,7889.0,0.0,0.0,0.0,0.0,0.0,5152.0,2836.0,16340.0,-474.0,991.0,idle
2026-10-07T00:50:08.149,7939.0,0.0,0.0,0.0,0.0,0.0,5116.0,2780.0,16244.0,-642.0,1246.0,idle
2026-10-07T00:50:08.196,7989.0,0.0,0.0,0.0,0.0,0.0,4988.0,2644.0,16304.0,-637.0,1197.0,idle
2026-10-07T00:50:08.249,8039.0,0.0,0.0,0.0,0.0,0.0,5076.0,2484.0,16516.0,-597.0,1065.0,idle
2026-10-07T00:50:08.298,8089.0,0.0,0.0,0.0,0.0,0.0,4904.0,2672.0,16364.0,-582.0,1166.0,idle
2026-10-07T00:50:08.347,8139.0,0.0,0.0,0.0,0.0,0.0,4900.0,2508.0,16436.0,-454.0,1034.0,idle
2026-10-07T00:50:08.397,8189.0,0.0,0.0,0.0,0.0,0.0,4936.0,2616.0,16144.0,-520.0,778.0,idle
2026-10-07T00:50:08.446,8239.0,0.0,0.0,0.0,0.0,0.0,5124.0,2860.0,16424.0,-446.0,853.0,idle
2026-10-07T00:50:08.496,8289.0,0.0,0.0,0.0,0.0,0.0,5136.0,2528.0,16368.0,-513.0,1081.0,idle
2026-10-07T00:50:08.542,8339.0,0.0,0.0,0.0,0.0,0.0,5080.0,2636.0,16036.0,-469.0,922.0,idle
2026-10-07T00:50:08.597,8389.0,0.0,0.0,0.0,0.0,0.0,5264.0,2656.0,16336.0,-455.0,931.0,idle
2026-10-07T00:50:08.647,8439.0,0.0,0.0,0.0,0.0,0.0,5036.0,2876.0,16244.0,-473.0,1150.0,idle
2026-10-07T00:50:08.699,8489.0,0.0,0.0,0.0,0.0,0.0,4952.0,2644.0,16336.0,-524.0,845.0,idle
2026-10-07T00:50:08.746,8539.0,0.0,0.0,0.0,0.0,0.0,4984.0,2688.0,16280.0,-561.0,981.0,idle
2026-10-07T00:50:08.797,8589.0,0.0,0.0,0.0,0.0,0.0,5080.0,2632.0,16152.0,-471.0,912.0,idle
2026-10-07T00:50:08.847,8639.0,0.0,0.0,0.0,0.0,0.0,5136.0,2772.0,16352.0,-551.0,918.0,idle
2026-10-07T00:50:08.896,8689.0,0.0,0.0,0.0,0.0,0.0,5052.0,2560.0,16324.0,-492.0,1087.0,idle
2026-10-07T00:50:08.946,8739.0,0.0,0.0,0.0,0.0,0.0,5072.0,2832.0,16324.0,-533.0,889.0,idle
2026-10-07T00:50:08.996,8789.0,0.0,0.0,0.0,0.0,0.0,5056.0,2556.0,16256.0,-432.0,978.0,idle
2026-10-07T00:50:09.049,8839.0,0.0,0.0,0.0,0.0,0.0,5032.0,2928.0,16400.0,-358.0,898.0,idle
2026-10-07T00:50:09.096,8889.0,0.0,0.0,0.0,0.0,0.0,5060.0,2600.0,16168.0,-403.0,778.0,idle
2026-10-07T00:50:09.149,8939.0,0.0,0.0,0.0,0.0,0.0,5064.0,2756.0,16284.0,-412.0,987.0,idle
2026-10-07T00:50:09.196,8989.0,0.0,0.0,0.0,0.0,0.0,5120.0,2688.0,16272.0,-404.0,855.0,idle
2026-10-07T00:50:09.249,9039.0,0.0,0.0,0.0,0.0,0.0,5176.0,2920.0,16300.0,-480.0,936.0,idle
2026-10-07T00:50:09.297,9089.0,0.0,0.0,0.0,0.0,0.0,5216.0,2684.0,16156.0,-494.0,1013.0,idle
2026-10-07T00:50:09.348,9139.0,0.0,0.0,0.0,0.0,0.0,5160.0,2852.0,16244.0,-524.0,1098.0,idle
2026-10-07T00:50:09.396,9189.0,0.0,0.0,0.0,0.0,0.0,4980.0,2740.0,16252.0,-528.0,985.0,idle
2026-10-07T00:50:09.446,9239.0,0.0,0.0,0.0,0.0,0.0,5044.0,2672.0,16236.0,-510.0,998.0,idle
2026-10-07T00:50:09.496,9289.0,0.0,0.0,0.0,0.0,0.0,5068.0,2692.0,16396.0,-298.0,887.0,idle
2026-10-07T00:50:09.546,9339.0,0.0,0.0,0.0,0.0,0.0,5124.0,2728.0,16168.0,-447.0,922.0,idle
2026-10-07T00:50:09.595,9389.0,0.0,0.0,0.0,0.0,0.0,5204.0,2892.0,16280.0,-379.0,859.0,idle
2026-10-07T00:50:09.650,9439.0,0.0,0.0,0.0,0.0,0.0,5200.0,2844.0,16264.0,-491.0,1174.0,idle
2026-10-07T00:50:09.696,9489.0,0.0,0.0,0.0,0.0,0.0,5132.0,2696.0,16212.0,-540.0,939.0,idle
2026-10-07T00:50:09.749,9539.0,0.0,0.0,0.0,0.0,0.0,5132.0,2680.0,16208.0,-596.0,1029.0,idle
2026-10-07T00:50:09.798,9589.0,0.0,0.0,0.0,0.0,0.0,5064.0,2752.0,16400.0,-378.0,1022.0,idle
2026-10-07T00:50:09.842,9639.0,0.0,0.0,0.0,0.0,0.0,4912.0,2720.0,16352.0,-459.0,970.0,idle
2026-10-07T00:50:09.898,9689.0,0.0,0.0,0.0,0.0,0.0,5072.0,2796.0,16356.0,-434.0,829.0,idle
2026-10-07T00:50:09.949,9739.0,0.0,0.0,0.0,0.0,0.0,5164.0,2840.0,16344.0,-496.0,930.0,idle
2026-10-07T00:50:09.996,9789.0,0.0,0.0,0.0,0.0,0.0,5188.0,2572.0,16172.0,-420.0,956.0,idle
2026-10-07T00:50:10.046,9839.0,0.0,0.0,0.0,0.0,0.0,5120.0,2832.0,16372.0,-456.0,1077.0,idle
2026-10-07T00:50:10.097,9889.0,0.0,0.0,0.0,0.0,0.0,5120.0,2776.0,16136.0,-438.0,1084.0,idle
2026-10-07T00:50:10.147,9939.0,0.0,0.0,0.0,0.0,0.0,5276.0,2868.0,16372.0,-434.0,1167.0,idle
2026-10-07T00:50:10.196,9989.0,0.0,0.0,0.0,0.0,0.0,5128.0,2940.0,16188.0,-500.0,1169.0,idle
2026-10-07T00:50:10.249,10039.0,0.0,0.0,0.0,0.0,0.0,5108.0,2804.0,16308.0,-547.0,1181.0,idle
2026-10-07T00:50:10.296,10089.0,0.0,0.0,0.0,0.0,0.0,4968.0,2656.0,16276.0,-514.0,1251.0,idle
2026-10-07T00:50:10.349,10139.0,0.0,0.0,0.0,0.0,0.0,5064.0,2528.0,16408.0,-346.0,827.0,idle
2026-10-07T00:50:10.397,10189.0,0.0,0.0,0.0,0.0,0.0,5156.0,2960.0,16304.0,-467.0,1086.0,idle
2026-10-07T00:50:10.450,10239.0,0.0,0.0,0.0,0.0,0.0,5060.0,3084.0,15904.0,-322.0,1084.0,idle
2026-10-07T00:50:10.496,10289.0,0.0,0.0,0.0,0.0,0.0,5080.0,2920.0,16324.0,-419.0,1123.0,idle
2026-10-07T00:50:10.547,10339.0,0.0,0.0,0.0,0.0,0.0,4976.0,3004.0,16100.0,-563.0,1097.0,idle
2026-10-07T00:50:10.599,10389.0,0.0,0.0,0.0,0.0,0.0,5040.0,2864.0,16280.0,-564.0,1149.0,idle
2026-10-07T00:50:10.643,10439.0,0.0,0.0,0.0,0.0,0.0,5152.0,2860.0,16256.0,-637.0,1255.0,idle
2026-10-07T00:50:10.699,10489.0,0.0,0.0,0.0,0.0,0.0,4812.0,2828.0,16384.0,-543.0,1371.0,idle
2026-10-07T00:50:10.749,10539.0,0.0,0.0,0.0,0.0,0.0,4860.0,2720.0,16396.0,-659.0,1100.0,idle
2026-10-07T00:50:10.800,10589.0,0.0,0.0,0.0,0.0,0.0,4896.0,2868.0,16340.0,-572.0,1116.0,idle
2026-10-07T00:50:10.844,10639.0,0.0,0.0,0.0,0.0,0.0,5008.0,2760.0,16324.0,-549.0,1014.0,idle
2026-10-07T00:50:10.896,10689.0,0.0,0.0,0.0,0.0,0.0,4916.0,2752.0,16360.0,-540.0,1064.0,idle
2026-10-07T00:50:10.946,10739.0,0.0,0.0,0.0,0.0,0.0,4944.0,2748.0,16348.0,-543.0,1141.0,idle
2026-10-07T00:50:10.996,10789.0,0.0,0.0,0.0,0.0,0.0,4840.0,2592.0,16384.0,-519.0,1138.0,idle
2026-10-07T00:50:11.046,10839.0,0.0,0.0,0.0,0.0,0.0,4704.0,2568.0,16488.0,-332.0,1256.0,idle
2026-10-07T00:50:11.096,10889.0,0.0,0.0,0.0,0.0,0.0,4728.0,2748.0,16268.0,-302.0,949.0,idle
2026-10-07T00:50:11.150,10939.0,0.0,0.0,0.0,0.0,0.0,4816.0,2956.0,16392.0,-333.0,856.0,idle
2026-10-07T00:50:11.196,10989.0,0.0,0.0,0.0,0.0,0.0,5000.0,2840.0,16436.0,-374.0,1051.0,idle
2026-10-07T00:50:11.246,11039.0,0.0,0.0,0.0,0.0,0.0,4816.0,3112.0,16272.0,-470.0,1143.0,idle
2026-10-07T00:50:11.300,11089.0,0.0,0.0,0.0,0.0,0.0,5004.0,2912.0,16356.0,-517.0,910.0,idle
2026-10-07T00:50:11.346,11139.0,0.0,0.0,0.0,0.0,0.0,4648.0,3120.0,16448.0,-663.0,1398.0,idle
2026-10-07T00:50:11.395,11189.0,0.0,0.0,0.0,0.0,0.0,4504.0,2452.0,16324.0,-595.0,899.0,idle
2026-10-07T00:50:11.446,11239.0,0.0,0.0,0.0,0.0,0.0,4664.0,2760.0,16524.0,-458.0,771.0,idle
2026-10-07T00:50:11.499,11289.0,0.0,0.0,0.0,0.0,0.0,4756.0,2704.0,16156.0,-368.0,622.0,idle
2026-10-07T00:50:11.544,11339.0,0.0,0.0,0.0,0.0,0.0,4972.0,2860.0,16312.0,-339.0,720.0,idle
2026-10-07T00:50:11.596,11389.0,0.0,0.0,0.0,0.0,0.0,5108.0,2964.0,16224.0,-407.0,609.0,idle
2026-10-07T00:50:11.646,11439.0,0.0,0.0,0.0,0.0,0.0,4984.0,2972.0,16388.0,-478.0,1005.0,idle
2026-10-07T00:50:11.698,11489.0,0.0,0.0,0.0,0.0,0.0,5128.0,2692.0,16188.0,-601.0,904.0,idle
2026-10-07T00:50:11.745,11539.0,0.0,0.0,0.0,0.0,0.0,5084.0,2916.0,16312.0,-534.0,1025.0,idle
2026-10-07T00:50:11.799,11589.0,0.0,0.0,0.0,0.0,0.0,4992.0,2756.0,16168.0,-490.0,1056.0,idle
2026-10-07T00:50:11.846,11639.0,0.0,0.0,0.0,0.0,0.0,5196.0,2956.0,16380.0,-540.0,1009.0,idle
2026-10-07T00:50:11.899,11689.0,0.0,0.0,0.0,0.0,0.0,4892.0,3000.0,16236.0,-657.0,1521.0,idle
2026-10-07T00:50:11.947,11739.0,0.0,0.0,0.0,0.0,0.0,4612.0,2760.0,16436.0,-669.0,1012.0,idle
2026-10-07T00:50:11.999,11789.0,0.0,0.0,0.0,0.0,0.0,4684.0,2732.0,16436.0,-629.0,1048.0,idle
2026-10-07T00:50:12.046,11839.0,0.0,0.0,0.0,0.0,0.0,4752.0,2736.0,16420.0,-438.0,843.0,idle
2026-10-07T00:50:12.099,11889.0,0.0,0.0,0.0,0.0,0.0,4868.0,2740.0,16224.0,-343.0,870.0,idle
2026-10-07T00:50:12.146,11939.0,0.0,0.0,0.0,0.0,0.0,5140.0,2788.0,16184.0,-273.0,708.0,idle
2026-10-07T00:50:12.199,11989.0,0.0,0.0,0.0,0.0,0.0,5012.0,3148.0,16340.0,-384.0,1030.0,idle
2026-10-07T00:50:12.246,12039.0,0.0,0.0,0.0,0.0,0.0,4948.0,2944.0,16236.0,-564.0,812.0,idle
2026-10-07T00:50:12.300,12089.0,0.0,0.0,0.0,0.0,0.0,5132.0,2780.0,16408.0,-647.0,842.0,idle
2026-10-07T00:50:12.346,12139.0,0.0,0.0,0.0,0.0,0.0,5108.0,2660.0,16292.0,-547.0,1084.0,idle
2026-10-07T00:50:12.396,12189.0,0.0,0.0,0.0,0.0,0.0,4952.0,2900.0,16360.0,-444.0,932.0,idle
2026-10-07T00:50:12.446,12239.0,0.0,0.0,0.0,0.0,0.0,4948.0,2972.0,16312.0,-559.0,1034.0,idle
2026-10-07T00:50:12.496,12289.0,0.0,0.0,0.0,0.0,0.0,4844.0,2876.0,16428.0,-537.0,1035.0,idle
2026-10-07T00:50:12.546,12339.0,0.0,0.0,0.0,0.0,0.0,4920.0,2752.0,16356.0,-472.0,905.0,idle
2026-10-07T00:50:12.596,12389.0,0.0,0.0,0.0,0.0,0.0,4940.0,2792.0,16384.0,-409.0,877.0,idle
2026-10-07T00:50:12.650,12439.0,0.0,0.0,0.0,0.0,0.0,5016.0,2964.0,16312.0,-513.0,860.0,idle
2026-10-07T00:50:12.700,12489.0,0.0,0.0,0.0,0.0,0.0,5124.0,2688.0,16372.0,-435.0,849.0,idle
2026-10-07T00:50:12.747,12539.0,0.0,0.0,0.0,0.0,0.0,5080.0,3052.0,16168.0,-519.0,1100.0,idle
2026-10-07T00:50:12.799,12589.0,0.0,0.0,0.0,0.0,0.0,5152.0,2672.0,16184.0,-499.0,922.0,idle
2026-10-07T00:50:12.846,12639.0,0.0,0.0,0.0,0.0,0.0,5040.0,3016.0,16420.0,-582.0,1218.0,idle
2026-10-07T00:50:12.899,12689.0,0.0,0.0,0.0,0.0,0.0,5060.0,2756.0,15992.0,-571.0,1037.0,idle
2026-10-07T00:50:12.946,12739.0,0.0,0.0,0.0,0.0,0.0,4868.0,3052.0,16424.0,-614.0,1097.0,idle
2026-10-07T00:50:12.996,12789.0,0.0,0.0,0.0,0.0,0.0,4872.0,2636.0,16412.0,-624.0,1124.0,idle
2026-10-07T00:50:13.046,12839.0,0.0,0.0,0.0,0.0,0.0,4884.0,2704.0,16396.0,-502.0,984.0,idle
2026-10-07T00:50:13.100,12889.0,0.0,0.0,0.0,0.0,0.0,4860.0,2704.0,16308.0,-362.0,986.0,idle
2026-10-07T00:50:13.148,12939.0,0.0,0.0,0.0,0.0,0.0,4840.0,2988.0,16160.0,-493.0,790.0,idle
2026-10-07T00:50:13.197,12989.0,0.0,0.0,0.0,0.0,0.0,5000.0,2900.0,16252.0,-519.0,881.0,idle
2026-10-07T00:50:13.247,13039.0,0.0,0.0,0.0,0.0,0.0,5084.0,2932.0,16128.0,-453.0,910.0,idle
2026-10-07T00:50:13.296,13089.0,0.0,0.0,0.0,0.0,0.0,5060.0,2896.0,16172.0,-572.0,829.0,idle
2026-10-07T00:50:13.345,13139.0,0.0,0.0,0.0,0.0,0.0,5052.0,2776.0,16256.0,-527.0,965.0,idle
2026-10-07T00:50:13.399,13189.0,0.0,0.0,0.0,0.0,0.0,4968.0,2772.0,16120.0,-547.0,848.0,idle
2026-10-07T00:50:13.446,13239.0,0.0,0.0,0.0,0.0,0.0,5112.0,2788.0,16192.0,-488.0,831.0,idle
2026-10-07T00:50:13.499,13289.0,0.0,0.0,0.0,0.0,0.0,5160.0,2784.0,16224.0,-468.0,914.0,idle
2026-10-07T00:50:13.546,13339.0,0.0,0.0,0.0,0.0,0.0,5024.0,2940.0,16140.0,-554.0,948.0,idle
2026-10-07T00:50:13.599,13389.0,0.0,0.0,0.0,0.0,0.0,5132.0,2760.0,16324.0,-435.0,845.0,idle
2026-10-07T00:50:13.647,13439.0,0.0,0.0,0.0,0.0,0.0,5108.0,3004.0,16276.0,-507.0,1052.0,idle
2026-10-07T00:50:13.696,13489.0,0.0,0.0,0.0,0.0,0.0,5076.0,2724.0,16168.0,-556.0,1006.0,idle
2026-10-07T00:50:13.746,13539.0,0.0,0.0,0.0,0.0,0.0,5064.0,2808.0,16208.0,-527.0,991.0,idle
2026-10-07T00:50:13.799,13589.0,0.0,0.0,0.0,0.0,0.0,5144.0,2716.0,16280.0,-531.0,873.0,idle
2026-10-07T00:50:13.849,13639.0,0.0,0.0,0.0,0.0,0.0,5160.0,2920.0,16200.0,-470.0,995.0,idle
2026-10-07T00:50:13.896,13689.0,0.0,0.0,0.0,0.0,0.0,5128.0,2900.0,16160.0,-574.0,944.0,idle
2026-10-07T00:50:13.950,13739.0,0.0,0.0,0.0,0.0,0.0,5160.0,2748.0,16180.0,-498.0,1027.0,idle
2026-10-07T00:50:13.999,13789.0,0.0,0.0,0.0,0.0,0.0,5092.0,2916.0,16148.0,-565.0,1053.0,idle
2026-10-07T00:50:14.046,13839.0,0.0,0.0,0.0,0.0,0.0,5180.0,2764.0,16344.0,-530.0,980.0,idle
2026-10-07T00:50:14.099,13889.0,0.0,0.0,0.0,0.0,0.0,4920.0,2720.0,16280.0,-517.0,1128.0,idle
2026-10-07T00:50:14.149,13939.0,0.0,0.0,0.0,0.0,0.0,4956.0,2848.0,16376.0,-597.0,764.0,idle
2026-10-07T00:50:14.197,13989.0,0.0,0.0,0.0,0.0,0.0,4996.0,2736.0,16320.0,-343.0,657.0,idle
2026-10-07T00:50:14.246,14039.0,0.0,0.0,0.0,0.0,0.0,5140.0,2684.0,16372.0,-334.0,731.0,idle
2026-10-07T00:50:14.297,14089.0,0.0,0.0,0.0,0.0,0.0,5400.0,2732.0,16248.0,-191.0,536.0,idle
2026-10-07T00:50:14.346,14139.0,0.0,0.0,0.0,0.0,0.0,5620.0,3428.0,15868.0,-413.0,935.0,idle
2026-10-07T00:50:14.396,14189.0,0.0,0.0,0.0,0.0,0.0,5532.0,3164.0,16160.0,-582.0,1337.0,idle
2026-10-07T00:50:14.446,14239.0,0.0,0.0,0.0,0.0,0.0,5284.0,2748.0,16132.0,-661.0,1383.0,idle
2026-10-07T00:50:14.496,14289.0,0.0,0.0,0.0,0.0,0.0,5104.0,2908.0,16456.0,-671.0,1483.0,idle
2026-10-07T00:50:14.549,14339.0,0.0,0.0,0.0,0.0,0.0,4952.0,2604.0,16512.0,-588.0,1415.0,idle
2026-10-07T00:50:14.596,14389.0,0.0,0.0,0.0,0.0,0.0,4788.0,2724.0,16360.0,-453.0,1139.0,idle
2026-10-07T00:50:14.650,14439.0,0.0,0.0,0.0,0.0,0.0,4816.0,2740.0,16436.0,-491.0,959.0,idle
2026-10-07T00:50:14.696,14489.0,0.0,0.0,0.0,0.0,0.0,4916.0,2728.0,16332.0,-360.0,871.0,idle
2026-10-07T00:50:14.745,14539.0,0.0,0.0,0.0,0.0,0.0,5016.0,2852.0,16280.0,-300.0,862.0,idle
2026-10-07T00:50:14.799,14589.0,0.0,0.0,0.0,0.0,0.0,4984.0,2948.0,16292.0,-340.0,804.0,idle
2026-10-07T00:50:14.850,14639.0,0.0,0.0,0.0,0.0,0.0,5100.0,2984.0,16180.0,-440.0,909.0,idle
2026-10-07T00:50:14.897,14689.0,0.0,0.0,0.0,0.0,0.0,5140.0,2756.0,16124.0,-315.0,670.0,idle
2026-10-07T00:50:14.946,14739.0,0.0,0.0,0.0,0.0,0.0,5208.0,3104.0,16224.0,-607.0,965.0,idle
2026-10-07T00:50:15.000,14789.0,0.0,0.0,0.0,0.0,0.0,5128.0,2716.0,16320.0,-464.0,1047.0,idle
2026-10-07T00:50:15.050,14839.0,0.0,0.0,0.0,0.0,0.0,5124.0,3028.0,16248.0,-527.0,988.0,idle
2026-10-07T00:50:15.099,14889.0,0.0,0.0,0.0,0.0,0.0,5004.0,2880.0,16232.0,-615.0,1022.0,idle
2026-10-07T00:50:15.147,14939.0,0.0,0.0,0.0,0.0,0.0,4960.0,2736.0,16368.0,-528.0,946.0,idle
2026-10-07T00:50:15.197,14989.0,0.0,0.0,0.0,0.0,0.0,4996.0,2808.0,16240.0,-442.0,964.0,idle
2026-10-07T00:50:15.246,15039.0,0.0,0.0,0.0,0.0,0.0,5180.0,2980.0,16248.0,-504.0,776.0,idle
2026-10-07T00:50:15.292,15089.0,0.0,0.0,0.0,0.0,0.0,5316.0,2352.0,16244.0,-250.0,1012.0,idle
2026-10-07T00:50:15.345,15139.0,0.0,0.0,0.0,0.0,0.0,5220.0,3148.0,16204.0,-512.0,1233.0,idle
2026-10-07T00:50:15.399,15189.0,0.0,0.0,0.0,0.0,0.0,5144.0,2632.0,16224.0,-526.0,992.0,idle
2026-10-07T00:50:15.446,15239.0,0.0,0.0,0.0,0.0,0.0,5000.0,3100.0,16376.0,-441.0,890.0,idle
2026-10-07T00:50:15.499,15289.0,0.0,0.0,0.0,0.0,0.0,4920.0,2716.0,16232.0,-465.0,985.0,idle
2026-10-07T00:50:15.545,15339.0,0.0,0.0,0.0,0.0,0.0,5072.0,2940.0,16280.0,-403.0,817.0,idle
2026-10-07T00:50:15.593,15389.0,0.0,0.0,0.0,0.0,0.0,5264.0,2832.0,16156.0,-437.0,929.0,idle
2026-10-07T00:50:15.647,15439.0,0.0,0.0,0.0,0.0,0.0,5180.0,2992.0,16220.0,-437.0,820.0,idle
2026-10-07T00:50:15.699,15489.0,0.0,0.0,0.0,0.0,0.0,5208.0,2928.0,16220.0,-508.0,1025.0,idle
2026-10-07T00:50:15.746,15539.0,0.0,0.0,0.0,0.0,0.0,5104.0,2852.0,16292.0,-492.0,925.0,idle
2026-10-07T00:50:15.799,15589.0,0.0,0.0,0.0,0.0,0.0,5248.0,2844.0,16156.0,-436.0,883.0,idle
2026-10-07T00:50:15.846,15639.0,0.0,0.0,0.0,0.0,0.0,5140.0,3080.0,16260.0,-478.0,1005.0,idle
2026-10-07T00:50:15.896,15689.0,0.0,0.0,0.0,0.0,0.0,5276.0,2820.0,16152.0,-525.0,900.0,idle
2026-10-07T00:50:15.946,15739.0,0.0,0.0,0.0,0.0,0.0,5264.0,2984.0,16288.0,-517.0,1090.0,idle
2026-10-07T00:50:15.997,15789.0,0.0,0.0,0.0,0.0,0.0,5188.0,2736.0,16180.0,-439.0,986.0,idle
2026-10-07T00:50:16.041,15839.0,0.0,0.0,0.0,0.0,0.0,5236.0,3148.0,16304.0,-551.0,912.0,idle
2026-10-07T00:50:16.096,15889.0,0.0,0.0,0.0,0.0,0.0,5240.0,2828.0,16164.0,-545.0,1134.0,idle
2026-10-07T00:50:16.147,15939.0,0.0,0.0,0.0,0.0,0.0,5212.0,2864.0,16172.0,-469.0,871.0,idle
2026-10-07T00:50:16.200,15989.0,0.0,0.0,0.0,0.0,0.0,5200.0,2980.0,16228.0,-524.0,1105.0,idle
2026-10-07T00:50:16.247,16039.0,0.0,0.0,0.0,0.0,0.0,5100.0,3048.0,16240.0,-456.0,896.0,idle
2026-10-07T00:50:16.299,16089.0,0.0,0.0,0.0,0.0,0.0,5204.0,2888.0,16244.0,-470.0,839.0,idle
2026-10-07T00:50:16.347,16139.0,0.0,0.0,0.0,0.0,0.0,5248.0,2988.0,16156.0,-476.0,1015.0,idle
2026-10-07T00:50:16.399,16189.0,0.0,0.0,0.0,0.0,0.0,5280.0,2864.0,16188.0,-456.0,778.0,idle
2026-10-07T00:50:16.447,16239.0,0.0,0.0,0.0,0.0,0.0,5260.0,3072.0,16220.0,-466.0,1016.0,idle
2026-10-07T00:50:16.497,16289.0,0.0,0.0,0.0,0.0,0.0,5288.0,2876.0,16128.0,-476.0,1026.0,idle
2026-10-07T00:50:16.546,16339.0,0.0,0.0,0.0,0.0,0.0,5280.0,3096.0,16044.0,-442.0,989.0,idle
2026-10-07T00:50:16.593,16389.0,0.0,0.0,0.0,0.0,0.0,5392.0,2984.0,16124.0,-595.0,989.0,idle
2026-10-07T00:50:16.646,16439.0,0.0,0.0,0.0,0.0,0.0,5316.0,2844.0,16320.0,-507.0,1056.0,idle
2026-10-07T00:50:16.698,16489.0,0.0,0.0,0.0,0.0,0.0,5188.0,2872.0,16192.0,-458.0,1089.0,idle
2026-10-07T00:50:16.747,16539.0,0.0,0.0,0.0,0.0,0.0,5100.0,3008.0,16192.0,-498.0,1014.0,idle
2026-10-07T00:50:16.796,16589.0,0.0,0.0,0.0,0.0,0.0,5148.0,2880.0,16228.0,-441.0,1008.0,idle
2026-10-07T00:50:16.846,16639.0,0.0,0.0,0.0,0.0,0.0,5188.0,2944.0,16172.0,-444.0,951.0,idle
2026-10-07T00:50:16.897,16689.0,0.0,0.0,0.0,0.0,0.0,5328.0,2988.0,16248.0,-430.0,885.0,idle
2026-10-07T00:50:16.946,16739.0,0.0,0.0,0.0,0.0,0.0,5140.0,2912.0,16232.0,-455.0,909.0,idle
2026-10-07T00:50:16.999,16789.0,0.0,0.0,0.0,0.0,0.0,5268.0,2928.0,16220.0,-460.0,783.0,idle
2026-10-07T00:50:17.046,16839.0,0.0,0.0,0.0,0.0,0.0,5160.0,3116.0,16300.0,-439.0,896.0,idle
2026-10-07T00:50:17.100,16889.0,0.0,0.0,0.0,0.0,0.0,5356.0,2924.0,16124.0,-485.0,786.0,idle
2026-10-07T00:50:17.146,16939.0,0.0,0.0,0.0,0.0,0.0,5432.0,2992.0,16188.0,-385.0,878.0,idle
2026-10-07T00:50:17.196,16989.0,0.0,0.0,0.0,0.0,0.0,5512.0,2976.0,15968.0,-491.0,1021.0,idle
2026-10-07T00:50:17.250,17039.0,0.0,0.0,0.0,0.0,0.0,5552.0,3196.0,16056.0,-557.0,1130.0,idle
2026-10-07T00:50:17.300,17089.0,0.0,0.0,0.0,0.0,0.0,5316.0,3196.0,16132.0,-707.0,1346.0,idle
2026-10-07T00:50:17.349,17139.0,0.0,0.0,0.0,0.0,0.0,5180.0,2880.0,16212.0,-805.0,1279.0,idle
2026-10-07T00:50:17.396,17189.0,0.0,0.0,0.0,0.0,0.0,5128.0,2664.0,16396.0,-538.0,1190.0,idle
2026-10-07T00:50:17.446,17239.0,0.0,0.0,0.0,0.0,0.0,5040.0,2904.0,16196.0,-448.0,1083.0,idle
2026-10-07T00:50:17.496,17289.0,0.0,0.0,0.0,0.0,0.0,5036.0,3048.0,16228.0,-418.0,1026.0,idle
2026-10-07T00:50:17.546,17339.0,0.0,0.0,0.0,0.0,0.0,5088.0,3032.0,16208.0,-583.0,892.0,idle
2026-10-07T00:50:17.596,17389.0,0.0,0.0,0.0,0.0,0.0,5216.0,2852.0,16168.0,-459.0,957.0,idle
2026-10-07T00:50:17.646,17439.0,0.0,0.0,0.0,0.0,0.0,5344.0,2796.0,16288.0,-388.0,897.0,idle
2026-10-07T00:50:17.696,17489.0,0.0,0.0,0.0,0.0,0.0,5292.0,3232.0,16156.0,-495.0,1116.0,idle
2026-10-07T00:50:17.750,17539.0,0.0,0.0,0.0,0.0,0.0,5324.0,2980.0,16068.0,-530.0,888.0,idle
2026-10-07T00:50:17.796,17589.0,0.0,0.0,0.0,0.0,0.0,5236.0,3004.0,16176.0,-574.0,1156.0,idle
2026-10-07T00:50:17.849,17639.0,0.0,0.0,0.0,0.0,0.0,5160.0,2736.0,16264.0,-493.0,916.0,idle
2026-10-07T00:50:17.896,17689.0,0.0,0.0,0.0,0.0,0.0,5144.0,3092.0,16236.0,-500.0,1053.0,idle
2026-10-07T00:50:17.946,17739.0,0.0,0.0,0.0,0.0,0.0,5144.0,2872.0,16116.0,-459.0,897.0,idle
2026-10-07T00:50:17.996,17789.0,0.0,0.0,0.0,0.0,0.0,5176.0,2972.0,16264.0,-503.0,997.0,idle
2026-10-07T00:50:18.046,17839.0,0.0,0.0,0.0,0.0,0.0,5232.0,2872.0,16184.0,-544.0,903.0,idle
2026-10-07T00:50:18.096,17889.0,0.0,0.0,0.0,0.0,0.0,5280.0,2952.0,16240.0,-534.0,893.0,idle
2026-10-07T00:50:18.146,17939.0,0.0,0.0,0.0,0.0,0.0,5272.0,3084.0,16248.0,-609.0,1106.0,idle
2026-10-07T00:50:18.198,17989.0,0.0,0.0,0.0,0.0,0.0,5192.0,2816.0,16248.0,-614.0,1024.0,idle
2026-10-07T00:50:18.249,18039.0,0.0,0.0,0.0,0.0,0.0,5252.0,2808.0,16216.0,-526.0,966.0,idle
2026-10-07T00:50:18.297,18089.0,0.0,0.0,0.0,0.0,0.0,5120.0,2840.0,16308.0,-465.0,1120.0,idle
2026-10-07T00:50:18.347,18139.0,0.0,0.0,0.0,0.0,0.0,5196.0,2940.0,16040.0,-386.0,893.0,idle
2026-10-07T00:50:18.396,18189.0,0.0,0.0,0.0,0.0,0.0,5224.0,3044.0,16300.0,-460.0,914.0,idle
2026-10-07T00:50:18.446,18239.0,0.0,0.0,0.0,0.0,0.0,5232.0,2892.0,16088.0,-475.0,950.0,idle
2026-10-07T00:50:18.498,18289.0,0.0,0.0,0.0,0.0,0.0,5280.0,3000.0,16104.0,-456.0,991.0,idle
2026-10-07T00:50:18.549,18339.0,0.0,0.0,0.0,0.0,0.0,5312.0,2952.0,16236.0,-580.0,1117.0,idle
2026-10-07T00:50:18.597,18389.0,0.0,0.0,0.0,0.0,0.0,5176.0,2832.0,16200.0,-531.0,1173.0,idle
2026-10-07T00:50:18.648,18439.0,0.0,0.0,0.0,0.0,0.0,5092.0,3000.0,16264.0,-519.0,926.0,idle
2026-10-07T00:50:18.698,18489.0,0.0,0.0,0.0,0.0,0.0,5096.0,2824.0,16316.0,-516.0,988.0,idle
2026-10-07T00:50:18.747,18539.0,0.0,0.0,0.0,0.0,0.0,5080.0,2900.0,16312.0,-446.0,901.0,idle
2026-10-07T00:50:18.796,18589.0,0.0,0.0,0.0,0.0,0.0,5096.0,2868.0,16284.0,-474.0,989.0,idle
2026-10-07T00:50:18.846,18639.0,0.0,0.0,0.0,0.0,0.0,5372.0,2888.0,16148.0,-311.0,680.0,idle
2026-10-07T00:50:18.897,18689.0,0.0,0.0,0.0,0.0,0.0,5308.0,3200.0,16184.0,-453.0,1035.0,idle
2026-10-07T00:50:18.950,18739.0,0.0,0.0,0.0,0.0,0.0,5368.0,2732.0,16032.0,-444.0,897.0,idle
2026-10-07T00:50:18.996,18789.0,0.0,0.0,0.0,0.0,0.0,5428.0,3144.0,16060.0,-428.0,1157.0,idle
2026-10-07T00:50:19.046,18839.0,0.0,0.0,0.0,0.0,0.0,5104.0,2928.0,16184.0,-485.0,1328.0,idle
2026-10-07T00:50:19.096,18889.0,0.0,0.0,0.0,0.0,0.0,5208.0,3244.0,16236.0,-593.0,1029.0,idle
2026-10-07T00:50:19.149,18939.0,0.0,0.0,0.0,0.0,0.0,5232.0,2944.0,16136.0,-638.0,1224.0,idle
2026-10-07T00:50:19.196,18989.0,0.0,0.0,0.0,0.0,0.0,5232.0,2664.0,16224.0,-607.0,1203.0,idle
2026-10-07T00:50:19.249,19039.0,0.0,0.0,0.0,0.0,0.0,5064.0,2884.0,16220.0,-554.0,1209.0,idle
2026-10-07T00:50:19.297,19089.0,0.0,0.0,0.0,0.0,0.0,4892.0,2892.0,16200.0,-558.0,1157.0,idle
2026-10-07T00:50:19.346,19139.0,0.0,0.0,0.0,0.0,0.0,4908.0,3060.0,16204.0,-556.0,883.0,idle
2026-10-07T00:50:19.396,19189.0,0.0,0.0,0.0,0.0,0.0,4856.0,2720.0,16408.0,-511.0,834.0,idle
2026-10-07T00:50:19.446,19239.0,0.0,0.0,0.0,0.0,0.0,5096.0,2656.0,16356.0,-331.0,516.0,idle
2026-10-07T00:50:19.497,19289.0,0.0,0.0,0.0,0.0,0.0,5248.0,3084.0,16236.0,-135.0,690.0,idle
2026-10-07T00:50:19.546,19339.0,0.0,0.0,0.0,0.0,0.0,5276.0,3316.0,16036.0,-367.0,767.0,idle
2026-10-07T00:50:19.596,19389.0,0.0,0.0,0.0,0.0,0.0,5388.0,3032.0,15912.0,-405.0,679.0,idle
2026-10-07T00:50:19.644,19439.0,0.0,0.0,0.0,0.0,0.0,5540.0,3028.0,16080.0,-497.0,873.0,idle
2026-10-07T00:50:19.697,19489.0,0.0,0.0,0.0,0.0,0.0,5416.0,3032.0,16228.0,-537.0,1042.0,idle
2026-10-07T00:50:19.746,19539.0,0.0,0.0,0.0,0.0,0.0,5376.0,3096.0,16116.0,-614.0,1084.0,idle
2026-10-07T00:50:19.800,19589.0,0.0,0.0,0.0,0.0,0.0,5336.0,2960.0,16204.0,-562.0,1012.0,idle
2026-10-07T00:50:19.846,19639.0,0.0,0.0,0.0,0.0,0.0,5272.0,3120.0,16296.0,-549.0,1173.0,idle
2026-10-07T00:50:19.899,19689.0,0.0,0.0,0.0,0.0,0.0,5208.0,2884.0,16148.0,-483.0,1044.0,idle
2026-10-07T00:50:19.944,19739.0,0.0,0.0,0.0,0.0,0.0,5256.0,2912.0,16284.0,-552.0,1045.0,idle
2026-10-07T00:50:19.997,19789.0,0.0,0.0,0.0,0.0,0.0,5236.0,2884.0,16256.0,-361.0,889.0,idle
2026-10-07T00:50:20.046,19839.0,0.0,0.0,0.0,0.0,0.0,5336.0,3072.0,16008.0,-520.0,987.0,idle
2026-10-07T00:50:20.099,19889.0,0.0,0.0,0.0,0.0,0.0,5324.0,2972.0,16140.0,-490.0,944.0,idle
