timestamp,t1,t2,t3,t4,t5,ax,ay,az,gx,gy,gz,label
2026-10-07T00:36:15.289,1190.0,0.0,0.0,0.0,0.0,0.0,5868.0,1524.0,16172.0,-506.0,1092.0,idle
2026-10-07T00:36:15.334,1240.0,0.0,0.0,0.0,0.0,0.0,5788.0,1772.0,16112.0,-504.0,988.0,idle
2026-10-07T00:36:15.380,1290.0,0.0,0.0,0.0,0.0,0.0,5932.0,1508.0,16144.0,-512.0,991.0,idle
2026-10-07T00:36:15.434,1340.0,0.0,0.0,0.0,0.0,0.0,5884.0,1632.0,16196.0,-454.0,818.0,idle
2026-10-07T00:36:15.484,1390.0,0.0,0.0,0.0,0.0,0.0,5960.0,1672.0,16112.0,-422.0,940.0,idle
2026-10-07T00:36:15.534,1440.0,0.0,0.0,0.0,0.0,0.0,5900.0,1644.0,16172.0,-508.0,1035.0,idle
2026-10-07T00:36:15.581,1490.0,0.0,0.0,0.0,0.0,0.0,5896.0,1632.0,16320.0,-539.0,895.0,idle
2026-10-07T00:36:15.630,1540.0,0.0,0.0,0.0,0.0,0.0,5888.0,1608.0,16160.0,-454.0,1026.0,idle
2026-10-07T00:36:15.681,1590.0,0.0,0.0,0.0,0.0,0.0,5772.0,1828.0,16228.0,-480.0,1010.0,idle
2026-10-07T00:36:15.733,1640.0,0.0,0.0,0.0,0.0,0.0,5872.0,1564.0,16248.0,-442.0,797.0,idle
2026-10-07T00:36:15.780,1690.0,0.0,0.0,0.0,0.0,0.0,6072.0,1568.0,16128.0,-459.0,803.0,idle
2026-10-07T00:36:15.831,1740.0,0.0,0.0,0.0,0.0,0.0,6004.0,1640.0,16160.0,-383.0,943.0,idle
2026-10-07T00:36:15.881,1790.0,0.0,0.0,0.0,0.0,0.0,5980.0,1680.0,16044.0,-478.0,889.0,idle
2026-10-07T00:36:15.931,1840.0,0.0,0.0,0.0,0.0,0.0,5924.0,1748.0,16152.0,-521.0,1003.0,idle
2026-10-07T00:36:15.981,1890.0,0.0,0.0,0.0,0.0,0.0,5972.0,1576.0,16116.0,-549.0,981.0,idle
2026-10-07T00:36:16.033,1940.0,0.0,0.0,0.0,0.0,0.0,6000.0,1592.0,16216.0,-467.0,949.0,idle
2026-10-07T00:36:16.080,1990.0,0.0,0.0,0.0,0.0,0.0,5968.0,1712.0,16156.0,-481.0,909.0,idle
2026-10-07T00:36:16.130,2040.0,0.0,0.0,0.0,0.0,0.0,6000.0,1736.0,16220.0,-511.0,1009.0,idle
2026-10-07T00:36:16.180,2090.0,0.0,0.0,0.0,0.0,0.0,5960.0,1616.0,15996.0,-508.0,919.0,idle
2026-10-07T00:36:16.234,2140.0,0.0,0.0,0.0,0.0,0.0,5984.0,1636.0,16160.0,-445.0,948.0,idle
2026-10-07T00:36:16.281,2190.0,0.0,0.0,0.0,0.0,0.0,6068.0,1660.0,16060.0,-417.0,892.0,idle
2026-10-07T00:36:16.332,2240.0,0.0,0.0,0.0,0.0,0.0,6220.0,1608.0,16104.0,-422.0,1036.0,idle
2026-10-07T00:36:16.381,2290.0,0.0,0.0,0.0,0.0,0.0,6144.0,1776.0,16000.0,-454.0,1212.0,idle
2026-10-07T00:36:16.434,2340.0,0.0,0.0,0.0,0.0,0.0,5908.0,1764.0,15996.0,-610.0,1165.0,idle
2026-10-07T00:36:16.480,2390.0,0.0,0.0,0.0,0.0,0.0,5928.0,1624.0,16112.0,-563.0,958.0,idle
2026-10-07T00:36:16.530,2440.0,0.0,0.0,0.0,0.0,0.0,5960.0,1636.0,16176.0,-552.0,1058.0,idle
2026-10-07T00:36:16.581,2490.0,0.0,0.0,0.0,0.0,0.0,5952.0,1508.0,16080.0,-428.0,1001.0,idle
2026-10-07T00:36:16.634,2540.0,0.0,0.0,0.0,0.0,0.0,5964.0,1688.0,16192.0,-455.0,949.0,idle
2026-10-07T00:36:16.681,2590.0,0.0,0.0,0.0,0.0,0.0,6064.0,1660.0,16036.0,-507.0,1052.0,idle
2026-10-07T00:36:16.731,2640.0,0.0,0.0,0.0,0.0,0.0,6072.0,1672.0,16116.0,-573.0,1016.0,idle
2026-10-07T00:36:16.781,2690.0,0.0,0.0,0.0,0.0,0.0,6012.0,1548.0,16204.0,-503.0,989.0,idle
2026-10-07T00:36:16.831,2740.0,0.0,0.0,0.0,0.0,0.0,5916.0,1724.0,16060.0,-467.0,1028.0,idle
2026-10-07T00:36:16.881,2790.0,0.0,0.0,0.0,0.0,0.0,5928.0,1680.0,16140.0,-548.0,1063.0,idle
2026-10-07T00:36:16.933,2840.0,0.0,0.0,0.0,0.0,0.0,5916.0,1652.0,16192.0,-473.0,955.0,idle
2026-10-07T00:36:16.980,2890.0,0.0,0.0,0.0,0.0,0.0,5968.0,1704.0,16048.0,-495.0,938.0,idle
2026-10-07T00:36:17.031,2940.0,0.0,0.0,0.0,0.0,0.0,6088.0,1732.0,16152.0,-467.0,1038.0,idle
2026-10-07T00:36:17.081,2990.0,0.0,0.0,0.0,0.0,0.0,6000.0,1544.0,16012.0,-490.0,972.0,idle
2026-10-07T00:36:17.131,3040.0,0.0,0.0,0.0,0.0,0.0,5960.0,1732.0,16176.0,-481.0,980.0,idle
2026-10-07T00:36:17.181,3090.0,0.0,0.0,0.0,0.0,0.0,5936.0,1756.0,16156.0,-541.0,1005.0,idle
2026-10-07T00:36:17.230,3140.0,0.0,0.0,0.0,0.0,0.0,5904.0,1644.0,15980.0,-434.0,948.0,idle
2026-10-07T00:36:17.281,3190.0,0.0,0.0,0.0,0.0,0.0,6036.0,1640.0,16216.0,-422.0,938.0,idle
2026-10-07T00:36:17.330,3240.0,0.0,0.0,0.0,0.0,0.0,5980.0,1720.0,16076.0,-479.0,1026.0,idle
2026-10-07T00:36:17.381,3290.0,0.0,0.0,0.0,0.0,0.0,5892.0,1640.0,16148.0,-538.0,1088.0,idle
2026-10-07T00:36:17.434,3340.0,0.0,0.0,0.0,0.0,0.0,5892.0,1648.0,16160.0,-519.0,1000.0,idle
2026-10-07T00:36:17.481,3390.0,0.0,0.0,0.0,0.0,0.0,6000.0,1656.0,16152.0,-537.0,907.0,idle
2026-10-07T00:36:17.531,3440.0,0.0,0.0,0.0,0.0,0.0,5948.0,1676.0,16176.0,-534.0,1050.0,idle
2026-10-07T00:36:17.581,3490.0,0.0,0.0,0.0,0.0,0.0,5956.0,1480.0,16188.0,-518.0,1047.0,idle
2026-10-07T00:36:17.631,3540.0,0.0,0.0,0.0,0.0,0.0,5796.0,1700.0,16108.0,-484.0,992.0,idle
2026-10-07T00:36:17.680,3590.0,0.0,0.0,0.0,0.0,0.0,5928.0,1636.0,16228.0,-498.0,875.0,idle
2026-10-07T00:36:17.734,3640.0,0.0,0.0,0.0,0.0,0.0,5972.0,1696.0,16012.0,-472.0,969.0,idle
2026-10-07T00:36:17.782,3690.0,0.0,0.0,0.0,0.0,0.0,5952.0,1588.0,16104.0,-511.0,995.0,idle
2026-10-07T00:36:17.834,3740.0,0.0,0.0,0.0,0.0,0.0,5980.0,1716.0,16144.0,-513.0,981.0,idle
2026-10-07T00:36:17.881,3790.0,0.0,0.0,0.0,0.0,0.0,5944.0,1620.0,16076.0,-504.0,1029.0,idle
2026-10-07T00:36:17.935,3840.0,0.0,0.0,0.0,0.0,0.0,5816.0,1772.0,16160.0,-532.0,1134.0,idle
2026-10-07T00:36:17.982,3890.0,0.0,0.0,0.0,0.0,0.0,5868.0,1572.0,16088.0,-500.0,908.0,idle
2026-10-07T00:36:18.034,3940.0,0.0,0.0,0.0,0.0,0.0,6028.0,1724.0,16072.0,-461.0,991.0,idle
2026-10-07T00:36:18.082,3990.0,0.0,0.0,0.0,0.0,0.0,6072.0,1724.0,16044.0,-505.0,1031.0,idle
2026-10-07T00:36:18.130,4040.0,0.0,0.0,0.0,0.0,0.0,5856.0,1732.0,16148.0,-522.0,1098.0,idle
2026-10-07T00:36:18.181,4090.0,0.0,0.0,0.0,0.0,0.0,5852.0,1748.0,16132.0,-489.0,973.0,idle
2026-10-07T00:36:18.231,4140.0,0.0,0.0,0.0,0.0,0.0,6028.0,1688.0,16040.0,-471.0,950.0,idle
2026-10-07T00:36:18.284,4190.0,0.0,0.0,0.0,0.0,0.0,5988.0,1636.0,16104.0,-490.0,1020.0,idle
2026-10-07T00:36:18.334,4240.0,0.0,0.0,0.0,0.0,0.0,5832.0,1640.0,16148.0,-534.0,959.0,idle
2026-10-07T00:36:18.380,4290.0,0.0,0.0,0.0,0.0,0.0,5880.0,1648.0,16196.0,-452.0,940.0,idle
2026-10-07T00:36:18.434,4340.0,0.0,0.0,0.0,0.0,0.0,5924.0,1652.0,16132.0,-436.0,886.0,idle
2026-10-07T00:36:18.481,4390.0,0.0,0.0,0.0,0.0,0.0,6076.0,1660.0,16088.0,-403.0,967.0,idle
2026-10-07T00:36:18.533,4440.0,0.0,0.0,0.0,0.0,0.0,5992.0,1720.0,16104.0,-522.0,1115.0,idle
2026-10-07T00:36:18.581,4490.0,0.0,0.0,0.0,0.0,0.0,5984.0,1604.0,16048.0,-442.0,999.0,idle
2026-10-07T00:36:18.630,4540.0,0.0,0.0,0.0,0.0,0.0,5876.0,1756.0,16236.0,-427.0,957.0,idle
2026-10-07T00:36:18.684,4590.0,0.0,0.0,0.0,0.0,0.0,5952.0,1644.0,16152.0,-480.0,890.0,idle
2026-10-07T00:36:18.731,4640.0,0.0,0.0,0.0,0.0,0.0,5952.0,1628.0,16064.0,-456.0,1022.0,idle
2026-10-07T00:36:18.780,4690.0,0.0,0.0,0.0,0.0,0.0,5944.0,1656.0,16212.0,-349.0,925.0,idle
2026-10-07T00:36:18.830,4740.0,0.0,0.0,0.0,0.0,0.0,5912.0,1824.0,16108.0,-420.0,896.0,idle
2026-10-07T00:36:18.881,4790.0,0.0,0.0,0.0,0.0,0.0,5972.0,1724.0,16196.0,-457.0,1002.0,idle
2026-10-07T00:36:18.930,4840.0,0.0,0.0,0.0,0.0,0.0,6032.0,1756.0,16120.0,-511.0,985.0,idle
2026-10-07T00:36:18.981,4890.0,0.0,0.0,0.0,0.0,0.0,6068.0,1844.0,15964.0,-521.0,884.0,idle
2026-10-07T00:36:19.032,4940.0,0.0,0.0,0.0,0.0,0.0,6020.0,1716.0,16084.0,-582.0,1010.0,idle
2026-10-07T00:36:19.084,4990.0,0.0,0.0,0.0,0.0,0.0,5952.0,1712.0,16108.0,-495.0,1053.0,idle
2026-10-07T00:36:19.131,5040.0,0.0,0.0,0.0,0.0,0.0,6012.0,1696.0,16008.0,-539.0,967.0,idle
2026-10-07T00:36:19.184,5090.0,0.0,0.0,0.0,0.0,0.0,5964.0,1848.0,16060.0,-502.0,997.0,idle
2026-10-07T00:36:19.232,5140.0,0.0,0.0,0.0,0.0,0.0,6044.0,1668.0,15924.0,-529.0,974.0,idle
2026-10-07T00:36:19.281,5190.0,0.0,0.0,0.0,0.0,0.0,5920.0,1696.0,16100.0,-529.0,973.0,idle
2026-10-07T00:36:19.331,5240.0,0.0,0.0,0.0,0.0,0.0,6084.0,1684.0,16160.0,-613.0,941.0,idle
2026-10-07T00:36:19.382,5290.0,0.0,0.0,0.0,0.0,0.0,6068.0,1524.0,16004.0,-501.0,950.0,idle
2026-10-07T00:36:19.432,5340.0,0.0,0.0,0.0,0.0,0.0,6008.0,1724.0,16184.0,-465.0,974.0,idle
2026-10-07T00:36:19.481,5390.0,0.0,0.0,0.0,0.0,0.0,5924.0,1756.0,16168.0,-487.0,1012.0,idle
2026-10-07T00:36:19.533,5440.0,0.0,0.0,0.0,0.0,0.0,5944.0,1544.0,16116.0,-547.0,1038.0,idle
2026-10-07T00:36:19.582,5490.0,0.0,0.0,0.0,0.0,0.0,6020.0,1700.0,16124.0,-429.0,903.0,idle
2026-10-07T00:36:19.631,5540.0,0.0,0.0,0.0,0.0,0.0,6160.0,1688.0,16008.0,-453.0,979.0,idle
2026-10-07T00:36:19.680,5590.0,0.0,0.0,0.0,0.0,0.0,6076.0,1820.0,16044.0,-556.0,1095.0,idle
2026-10-07T00:36:19.731,5640.0,0.0,0.0,0.0,0.0,0.0,5880.0,1688.0,16048.0,-536.0,1019.0,idle
2026-10-07T00:36:19.784,5690.0,0.0,0.0,0.0,0.0,0.0,5944.0,1676.0,16076.0,-495.0,921.0,idle
2026-10-07T00:36:19.833,5740.0,0.0,0.0,0.0,0.0,0.0,6032.0,1644.0,16176.0,-393.0,1051.0,idle
2026-10-07T00:36:19.884,5790.0,0.0,0.0,0.0,0.0,0.0,5988.0,1864.0,16136.0,-431.0,870.0,idle
2026-10-07T00:36:19.932,5840.0,0.0,0.0,0.0,0.0,0.0,6140.0,1712.0,16116.0,-555.0,1030.0,idle
2026-10-07T00:36:19.984,5890.0,0.0,0.0,0.0,0.0,0.0,5936.0,1784.0,16148.0,-543.0,1041.0,idle
2026-10-07T00:36:20.032,5940.0,0.0,0.0,0.0,0.0,0.0,6076.0,1552.0,16024.0,-475.0,1047.0,idle
2026-10-07T00:36:20.082,5990.0,0.0,0.0,0.0,0.0,0.0,5960.0,1712.0,16136.0,-408.0,1042.0,idle
2026-10-07T00:36:20.130,6040.0,0.0,0.0,0.0,0.0,0.0,5940.0,1780.0,16140.0,-489.0,936.0,idle
2026-10-07T00:36:20.180,6090.0,0.0,0.0,0.0,0.0,0.0,6076.0,1700.0,15920.0,-472.0,993.0,idle
2026-10-07T00:36:20.234,6140.0,0.0,0.0,0.0,0.0,0.0,6028.0,1744.0,16172.0,-449.0,971.0,idle
2026-10-07T00:36:20.281,6190.0,0.0,0.0,0.0,0.0,0.0,6032.0,1692.0,16028.0,-519.0,984.0,idle
2026-10-07T00:36:20.331,6240.0,0.0,0.0,0.0,0.0,0.0,6080.0,1700.0,16168.0,-517.0,913.0,idle
2026-10-07T00:36:20.384,6290.0,0.0,0.0,0.0,0.0,0.0,6008.0,1688.0,16068.0,-527.0,1017.0,idle
2026-10-07T00:36:20.430,6340.0,0.0,0.0,0.0,0.0,0.0,5904.0,1768.0,16108.0,-439.0,978.0,idle
2026-10-07T00:36:20.484,6390.0,0.0,0.0,0.0,0.0,0.0,5996.0,1612.0,16116.0,-449.0,948.0,idle
2026-10-07T00:36:20.531,6440.0,0.0,0.0,0.0,0.0,0.0,6016.0,1772.0,16200.0,-481.0,1009.0,idle
2026-10-07T00:36:20.581,6490.0,0.0,0.0,0.0,0.0,0.0,6104.0,1640.0,16100.0,-459.0,973.0,idle
2026-10-07T00:36:20.629,6540.0,0.0,0.0,0.0,0.0,0.0,6024.0,1660.0,15988.0,-480.0,1108.0,idle
2026-10-07T00:36:20.681,6590.0,0.0,0.0,0.0,0.0,0.0,5940.0,1732.0,16044.0,-481.0,1118.0,idle
2026-10-07T00:36:20.733,6640.0,0.0,0.0,0.0,0.0,0.0,5900.0,1868.0,16060.0,-501.0,916.0,idle
2026-10-07T00:36:20.780,6690.0,0.0,0.0,0.0,0.0,0.0,6068.0,1624.0,16164.0,-504.0,921.0,idle
2026-10-07T00:36:20.831,6740.0,0.0,0.0,0.0,0.0,0.0,6092.0,1708.0,16116.0,-470.0,1024.0,idle
2026-10-07T00:36:20.882,6790.0,0.0,0.0,0.0,0.0,0.0,6020.0,1736.0,16076.0,-468.0,1003.0,idle
2026-10-07T00:36:20.934,6840.0,0.0,0.0,0.0,0.0,0.0,6000.0,1728.0,16160.0,-526.0,898.0,idle
2026-10-07T00:36:20.981,6890.0,0.0,0.0,0.0,0.0,0.0,6048.0,1696.0,16072.0,-473.0,991.0,idle
2026-10-07T00:36:21.031,6940.0,0.0,0.0,0.0,0.0,0.0,5996.0,1740.0,15940.0,-518.0,1034.0,idle
2026-10-07T00:36:21.081,6990.0,0.0,0.0,0.0,0.0,0.0,5868.0,1612.0,16176.0,-502.0,1059.0,idle
2026-10-07T00:36:21.133,7040.0,0.0,0.0,0.0,0.0,0.0,5968.0,1684.0,16148.0,-447.0,927.0,idle
2026-10-07T00:36:21.181,7090.0,0.0,0.0,0.0,0.0,0.0,6024.0,1704.0,16204.0,-481.0,935.0,idle
2026-10-07T00:36:21.234,7140.0,0.0,0.0,0.0,0.0,0.0,6120.0,1716.0,15972.0,-418.0,893.0,idle
2026-10-07T00:36:21.280,7190.0,0.0,0.0,0.0,0.0,0.0,6092.0,1776.0,15972.0,-431.0,1004.0,idle
2026-10-07T00:36:21.334,7240.0,0.0,0.0,0.0,0.0,0.0,6028.0,1800.0,16100.0,-527.0,963.0,idle
2026-10-07T00:36:21.381,7290.0,0.0,0.0,0.0,0.0,0.0,6024.0,1604.0,16080.0,-461.0,1077.0,idle
2026-10-07T00:36:21.431,7340.0,0.0,0.0,0.0,0.0,0.0,5788.0,1916.0,16176.0,-459.0,1076.0,idle
2026-10-07T00:36:21.481,7390.0,0.0,0.0,0.0,0.0,0.0,5976.0,1560.0,16060.0,-482.0,789.0,idle
2026-10-07T00:36:21.534,7440.0,0.0,0.0,0.0,0.0,0.0,6012.0,1836.0,16080.0,-410.0,973.0,idle
2026-10-07T00:36:21.581,7490.0,0.0,0.0,0.0,0.0,0.0,6160.0,1700.0,16076.0,-391.0,969.0,idle
2026-10-07T00:36:21.631,7540.0,0.0,0.0,0.0,0.0,0.0,6032.0,1964.0,15936.0,-489.0,1010.0,idle
2026-10-07T00:36:21.685,7590.0,0.0,0.0,0.0,0.0,0.0,6112.0,1592.0,16088.0,-468.0,925.0,idle
2026-10-07T00:36:21.731,7640.0,0.0,0.0,0.0,0.0,0.0,6148.0,1748.0,16092.0,-566.0,1005.0,idle
2026-10-07T00:36:21.780,7690.0,0.0,0.0,0.0,0.0,0.0,5976.0,1680.0,16048.0,-451.0,980.0,idle
2026-10-07T00:36:21.830,7740.0,0.0,0.0,0.0,0.0,0.0,5924.0,1716.0,16192.0,-447.0,966.0,idle
2026-10-07T00:36:21.880,7790.0,0.0,0.0,0.0,0.0,0.0,6080.0,1732.0,16080.0,-455.0,847.0,idle
2026-10-07T00:36:21.931,7840.0,0.0,0.0,0.0,0.0,0.0,6068.0,1716.0,16072.0,-495.0,864.0,idle
2026-10-07T00:36:21.983,7890.0,0.0,0.0,0.0,0.0,0.0,6212.0,1764.0,16116.0,-470.0,823.0,idle
2026-10-07T00:36:22.030,7940.0,0.0,0.0,0.0,0.0,0.0,6240.0,1832.0,15940.0,-505.0,900.0,idle
2026-10-07T00:36:22.082,7990.0,0.0,0.0,0.0,0.0,0.0,6196.0,1860.0,15992.0,-514.0,1114.0,idle
2026-10-07T00:36:22.131,8040.0,0.0,0.0,0.0,0.0,0.0,6024.0,1572.0,15948.0,-479.0,1043.0,idle
2026-10-07T00:36:22.181,8090.0,0.0,0.0,0.0,0.0,0.0,5984.0,1836.0,16156.0,-620.0,661.0,idle
2026-10-07T00:36:22.230,8140.0,0.0,0.0,0.0,0.0,0.0,6336.0,1700.0,15904.0,-541.0,921.0,idle
2026-10-07T00:36:22.281,8190.0,0.0,0.0,0.0,0.0,0.0,6200.0,1652.0,15932.0,-482.0,1027.0,idle
2026-10-07T00:36:22.333,8240.0,0.0,0.0,0.0,0.0,0.0,6072.0,1704.0,16068.0,-353.0,1060.0,idle
2026-10-07T00:36:22.380,8290.0,0.0,0.0,0.0,0.0,0.0,5976.0,1972.0,16096.0,-586.0,1064.0,idle
2026-10-07T00:36:22.434,8340.0,0.0,0.0,0.0,0.0,0.0,6060.0,1728.0,16060.0,-594.0,1032.0,idle
2026-10-07T00:36:22.481,8390.0,0.0,0.0,0.0,0.0,0.0,6220.0,1528.0,16092.0,-543.0,1063.0,idle
2026-10-07T00:36:22.530,8440.0,0.0,0.0,0.0,0.0,0.0,6036.0,1804.0,16144.0,-461.0,1077.0,idle
2026-10-07T00:36:22.581,8490.0,0.0,0.0,0.0,0.0,0.0,6056.0,1716.0,16004.0,-580.0,1098.0,idle
2026-10-07T00:36:22.631,8540.0,0.0,0.0,0.0,0.0,0.0,6044.0,1688.0,16148.0,-514.0,982.0,idle
2026-10-07T00:36:22.679,8590.0,0.0,0.0,0.0,0.0,0.0,6004.0,1668.0,16028.0,-505.0,1006.0,idle
2026-10-07T00:36:22.730,8640.0,0.0,0.0,0.0,0.0,0.0,6104.0,1648.0,15976.0,-405.0,950.0,idle
2026-10-07T00:36:22.781,8690.0,0.0,0.0,0.0,0.0,0.0,6084.0,1720.0,15996.0,-449.0,1013.0,idle
2026-10-07T00:36:22.831,8740.0,0.0,0.0,0.0,0.0,0.0,6056.0,1736.0,16084.0,-515.0,991.0,idle
2026-10-07T00:36:22.881,8790.0,0.0,0.0,0.0,0.0,0.0,6048.0,1736.0,16052.0,-537.0,986.0,idle
2026-10-07T00:36:22.930,8840.0,0.0,0.0,0.0,0.0,0.0,6012.0,1632.0,16104.0,-513.0,1072.0,idle
2026-10-07T00:36:22.980,8890.0,0.0,0.0,0.0,0.0,0.0,6000.0,1860.0,16036.0,-514.0,943.0,idle
2026-10-07T00:36:23.033,8940.0,0.0,0.0,0.0,0.0,0.0,6060.0,1736.0,16076.0,-519.0,987.0,idle
2026-10-07T00:36:23.080,8990.0,0.0,0.0,0.0,0.0,0.0,6060.0,1760.0,16044.0,-463.0,985.0,idle
2026-10-07T00:36:23.133,9040.0,0.0,0.0,0.0,0.0,0.0,6032.0,1792.0,15984.0,-450.0,1044.0,idle
2026-10-07T00:36:23.181,9090.0,0.0,0.0,0.0,0.0,0.0,5944.0,1712.0,16068.0,-471.0,1041.0,idle
2026-10-07T00:36:23.233,9140.0,0.0,0.0,0.0,0.0,0.0,6104.0,1884.0,16132.0,-557.0,974.0,idle
2026-10-07T00:36:23.280,9190.0,0.0,0.0,0.0,0.0,0.0,6020.0,1644.0,16112.0,-494.0,1011.0,idle
2026-10-07T00:36:23.333,9240.0,0.0,0.0,0.0,0.0,0.0,6048.0,1688.0,16124.0,-488.0,925.0,idle
2026-10-07T00:36:23.380,9290.0,0.0,0.0,0.0,0.0,0.0,6056.0,1756.0,16092.0,-482.0,1027.0,idle
2026-10-07T00:36:23.430,9340.0,0.0,0.0,0.0,0.0,0.0,6040.0,1652.0,16056.0,-485.0,1006.0,idle
2026-10-07T00:36:23.480,9390.0,0.0,0.0,0.0,0.0,0.0,6128.0,1720.0,16048.0,-532.0,998.0,idle
2026-10-07T00:36:23.532,9440.0,0.0,0.0,0.0,0.0,0.0,6112.0,1744.0,16108.0,-430.0,967.0,idle
2026-10-07T00:36:23.580,9490.0,0.0,0.0,0.0,0.0,0.0,6060.0,1724.0,16168.0,-488.0,1038.0,idle
2026-10-07T00:36:23.632,9540.0,0.0,0.0,0.0,0.0,0.0,6104.0,1692.0,16056.0,-467.0,877.0,idle
2026-10-07T00:36:23.681,9590.0,0.0,0.0,0.0,0.0,0.0,6080.0,1832.0,16076.0,-449.0,1085.0,idle
2026-10-07T00:36:23.733,9640.0,0.0,0.0,0.0,0.0,0.0,5960.0,1796.0,16124.0,-551.0,1060.0,idle
2026-10-07T00:36:23.780,9690.0,0.0,0.0,0.0,0.0,0.0,6020.0,1680.0,15944.0,-489.0,844.0,idle
2026-10-07T00:36:23.833,9740.0,0.0,0.0,0.0,0.0,0.0,6160.0,1604.0,16048.0,-421.0,953.0,idle
2026-10-07T00:36:23.880,9790.0,0.0,0.0,0.0,0.0,0.0,6016.0,1892.0,16024.0,-472.0,998.0,idle
2026-10-07T00:36:23.933,9840.0,0.0,0.0,0.0,0.0,0.0,6136.0,1660.0,16044.0,-547.0,937.0,idle
2026-10-07T00:36:23.980,9890.0,0.0,0.0,0.0,0.0,0.0,6092.0,1736.0,16196.0,-514.0,956.0,idle
2026-10-07T00:36:24.033,9940.0,0.0,0.0,0.0,0.0,0.0,6168.0,1660.0,16152.0,-539.0,1068.0,idle
2026-10-07T00:36:24.079,9990.0,0.0,0.0,0.0,0.0,0.0,6036.0,1772.0,16216.0,-486.0,1068.0,idle
2026-10-07T00:36:24.130,10040.0,0.0,0.0,0.0,0.0,0.0,5988.0,1664.0,16020.0,-491.0,969.0,idle
2026-10-07T00:36:24.181,10090.0,0.0,0.0,0.0,0.0,0.0,6060.0,1708.0,16092.0,-463.0,1015.0,idle
2026-10-07T00:36:24.230,10140.0,0.0,0.0,0.0,0.0,0.0,6060.0,1708.0,16216.0,-473.0,991.0,idle
2026-10-07T00:36:24.279,10190.0,0.0,0.0,0.0,0.0,0.0,6156.0,1756.0,16028.0,-492.0,947.0,idle
2026-10-07T00:36:24.331,10240.0,0.0,0.0,0.0,0.0,0.0,6120.0,1796.0,16164.0,-497.0,1004.0,idle
2026-10-07T00:36:24.380,10290.0,0.0,0.0,0.0,0.0,0.0,5976.0,1680.0,16072.0,-500.0,1076.0,idle
2026-10-07T00:36:24.431,10340.0,0.0,0.0,0.0,0.0,0.0,5944.0,1680.0,16124.0,-397.0,962.0,idle
2026-10-07T00:36:24.480,10390.0,0.0,0.0,0.0,0.0,0.0,6020.0,1852.0,16116.0,-438.0,1008.0,idle
2026-10-07T00:36:24.530,10440.0,0.0,0.0,0.0,0.0,0.0,6160.0,1760.0,15980.0,-407.0,898.0,idle
2026-10-07T00:36:24.580,10490.0,0.0,0.0,0.0,0.0,0.0,6088.0,1936.0,15940.0,-487.0,1002.0,idle
2026-10-07T00:36:24.633,10540.0,0.0,0.0,0.0,0.0,0.0,6088.0,1636.0,16172.0,-617.0,879.0,idle
2026-10-07T00:36:24.679,10590.0,0.0,0.0,0.0,0.0,0.0,6148.0,1576.0,16084.0,-538.0,1005.0,idle
2026-10-07T00:36:24.733,10640.0,0.0,0.0,0.0,0.0,0.0,6160.0,1624.0,16084.0,-469.0,1031.0,idle
2026-10-07T00:36:24.783,10690.0,0.0,0.0,0.0,0.0,0.0,6120.0,1796.0,16092.0,-454.0,999.0,idle
2026-10-07T00:36:24.833,10740.0,0.0,0.0,0.0,0.0,0.0,5964.0,1888.0,16000.0,-608.0,1188.0,idle
2026-10-07T00:36:24.883,10790.0,0.0,0.0,0.0,0.0,0.0,5960.0,1600.0,16128.0,-591.0,986.0,idle
2026-10-07T00:36:24.930,10840.0,0.0,0.0,0.0,0.0,0.0,6088.0,1588.0,16108.0,-549.0,897.0,idle
2026-10-07T00:36:24.980,10890.0,0.0,0.0,0.0,0.0,0.0,5992.0,1600.0,16196.0,-346.0,884.0,idle
2026-10-07T00:36:25.030,10940.0,0.0,0.0,0.0,0.0,0.0,6128.0,1724.0,16016.0,-448.0,852.0,idle
2026-10-07T00:36:25.082,10990.0,0.0,0.0,0.0,0.0,0.0,6248.0,1820.0,16036.0,-449.0,979.0,idle
2026-10-07T00:36:25.130,11040.0,0.0,0.0,0.0,0.0,0.0,6164.0,1780.0,16088.0,-556.0,1069.0,idle
2026-10-07T00:36:25.183,11090.0,0.0,0.0,0.0,0.0,0.0,5984.0,1704.0,16056.0,-547.0,1021.0,idle
2026-10-07T00:36:25.231,11140.0,0.0,0.0,0.0,0.0,0.0,6088.0,1696.0,16132.0,-470.0,910.0,idle
2026-10-07T00:36:25.284,11190.0,0.0,0.0,0.0,0.0,0.0,6056.0,1632.0,15944.0,-385.0,1043.0,idle
2026-10-07T00:36:25.330,11240.0,0.0,0.0,0.0,0.0,0.0,6164.0,1804.0,16072.0,-417.0,914.0,idle
2026-10-07T00:36:25.380,11290.0,0.0,0.0,0.0,0.0,0.0,6104.0,1808.0,15968.0,-478.0,1129.0,idle
2026-10-07T00:36:25.430,11340.0,0.0,0.0,0.0,0.0,0.0,5932.0,1820.0,16036.0,-624.0,989.0,idle
2026-10-07T00:36:25.480,11390.0,0.0,0.0,0.0,0.0,0.0,6048.0,1592.0,16068.0,-475.0,972.0,idle
2026-10-07T00:36:25.533,11440.0,0.0,0.0,0.0,0.0,0.0,6168.0,1688.0,16104.0,-334.0,955.0,idle
2026-10-07T00:36:25.580,11490.0,0.0,0.0,0.0,0.0,0.0,6112.0,1936.0,16000.0,-386.0,948.0,idle
2026-10-07T00:36:25.633,11540.0,0.0,0.0,0.0,0.0,0.0,6108.0,1840.0,15992.0,-534.0,1085.0,idle
2026-10-07T00:36:25.680,11590.0,0.0,0.0,0.0,0.0,0.0,6020.0,1776.0,16048.0,-593.0,978.0,idle
2026-10-07T00:36:25.733,11640.0,0.0,0.0,0.0,0.0,0.0,6056.0,1632.0,16208.0,-516.0,975.0,idle
2026-10-07T00:36:25.784,11690.0,0.0,0.0,0.0,0.0,0.0,5992.0,1776.0,16256.0,-433.0,1027.0,idle
2026-10-07T00:36:25.830,11740.0,0.0,0.0,0.0,0.0,0.0,6156.0,1884.0,15904.0,-485.0,935.0,idle
2026-10-07T00:36:25.880,11790.0,0.0,0.0,0.0,0.0,0.0,6136.0,1864.0,16148.0,-517.0,1059.0,idle
2026-10-07T00:36:25.930,11840.0,0.0,0.0,0.0,0.0,0.0,6032.0,1732.0,16092.0,-435.0,987.0,idle
2026-10-07T00:36:25.980,11890.0,0.0,0.0,0.0,0.0,0.0,6132.0,1800.0,15944.0,-442.0,968.0,idle
2026-10-07T00:36:26.029,11940.0,0.0,0.0,0.0,0.0,0.0,6120.0,1804.0,16040.0,-476.0,976.0,idle
2026-10-07T00:36:26.080,11990.0,0.0,0.0,0.0,0.0,0.0,6152.0,1712.0,16136.0,-541.0,927.0,idle
2026-10-07T00:36:26.129,12040.0,0.0,0.0,0.0,0.0,0.0,6004.0,1752.0,16120.0,-452.0,1133.0,idle
2026-10-07T00:36:26.180,12090.0,0.0,0.0,0.0,0.0,0.0,5996.0,1740.0,16040.0,-479.0,1027.0,idle
2026-10-07T00:36:26.230,12140.0,0.0,0.0,0.0,0.0,0.0,6132.0,1792.0,15944.0,-450.0,851.0,idle
2026-10-07T00:36:26.283,12190.0,0.0,0.0,0.0,0.0,0.0,6188.0,1796.0,16120.0,-530.0,1020.0,idle
2026-10-07T00:36:26.333,12240.0,0.0,0.0,0.0,0.0,0.0,6124.0,1772.0,15996.0,-458.0,1072.0,idle
2026-10-07T00:36:26.380,12290.0,0.0,0.0,0.0,0.0,0.0,6024.0,1856.0,16228.0,-537.0,1005.0,idle
2026-10-07T00:36:26.433,12340.0,0.0,0.0,0.0,0.0,0.0,6012.0,1692.0,16048.0,-438.0,1040.0,idle
2026-10-07T00:36:26.480,12390.0,0.0,0.0,0.0,0.0,0.0,6152.0,1900.0,16024.0,-536.0,919.0,idle
2026-10-07T00:36:26.533,12440.0,0.0,0.0,0.0,0.0,0.0,6160.0,1744.0,15968.0,-511.0,1071.0,idle
2026-10-07T00:36:26.583,12490.0,0.0,0.0,0.0,0.0,0.0,5948.0,1892.0,16092.0,-521.0,1010.0,idle
2026-10-07T00:36:26.633,12540.0,0.0,0.0,0.0,0.0,0.0,6024.0,1672.0,16180.0,-444.0,1054.0,idle
2026-10-07T00:36:26.683,12590.0,0.0,0.0,0.0,0.0,0.0,6076.0,1832.0,15952.0,-449.0,882.0,idle
2026-10-07T00:36:26.733,12640.0,0.0,0.0,0.0,0.0,0.0,6120.0,1696.0,15992.0,-476.0,927.0,idle
2026-10-07T00:36:26.780,12690.0,0.0,0.0,0.0,0.0,0.0,6176.0,1840.0,16016.0,-477.0,1014.0,idle
2026-10-07T00:36:26.833,12740.0,0.0,0.0,0.0,0.0,0.0,6120.0,1736.0,16168.0,-559.0,1130.0,idle
2026-10-07T00:36:26.882,12790.0,0.0,0.0,0.0,0.0,0.0,6072.0,1720.0,16032.0,-500.0,1152.0,idle
2026-10-07T00:36:26.930,12840.0,0.0,0.0,0.0,0.0,0.0,5972.0,1848.0,16108.0,-477.0,959.0,idle
2026-10-07T00:36:26.983,12890.0,0.0,0.0,0.0,0.0,0.0,6084.0,1772.0,16092.0,-475.0,820.0,idle
2026-10-07T00:36:27.033,12940.0,0.0,0.0,0.0,0.0,0.0,6256.0,1768.0,16148.0,-485.0,1006.0,idle
2026-10-07T00:36:27.080,12990.0,0.0,0.0,0.0,0.0,0.0,6168.0,1828.0,15988.0,-507.0,984.0,idle
2026-10-07T00:36:27.129,13040.0,0.0,0.0,0.0,0.0,0.0,6076.0,1764.0,15980.0,-547.0,1016.0,idle
2026-10-07T00:36:27.180,13090.0,0.0,0.0,0.0,0.0,0.0,6004.0,1760.0,16040.0,-505.0,1087.0,idle
2026-10-07T00:36:27.230,13140.0,0.0,0.0,0.0,0.0,0.0,6116.0,1696.0,16088.0,-531.0,952.0,idle
2026-10-07T00:36:27.280,13190.0,0.0,0.0,0.0,0.0,0.0,6048.0,1852.0,16128.0,-493.0,935.0,idle
2026-10-07T00:36:27.333,13240.0,0.0,0.0,0.0,0.0,0.0,6092.0,1824.0,16084.0,-503.0,885.0,idle
2026-10-07T00:36:27.380,13290.0,0.0,0.0,0.0,0.0,0.0,6104.0,1680.0,15956.0,-513.0,1049.0,idle
2026-10-07T00:36:27.430,13340.0,0.0,0.0,0.0,0.0,0.0,6056.0,1756.0,16052.0,-482.0,978.0,idle
2026-10-07T00:36:27.479,13390.0,0.0,0.0,0.0,0.0,0.0,6140.0,1804.0,15968.0,-549.0,882.0,idle
2026-10-07T00:36:27.532,13440.0,0.0,0.0,0.0,0.0,0.0,6176.0,1748.0,15976.0,-475.0,1057.0,idle
2026-10-07T00:36:27.580,13490.0,0.0,0.0,0.0,0.0,0.0,6060.0,1680.0,16216.0,-552.0,971.0,idle
2026-10-07T00:36:27.633,13540.0,0.0,0.0,0.0,0.0,0.0,6136.0,1564.0,16120.0,-444.0,999.0,idle
2026-10-07T00:36:27.680,13590.0,0.0,0.0,0.0,0.0,0.0,5936.0,1868.0,16108.0,-505.0,967.0,idle
2026-10-07T00:36:27.730,13640.0,0.0,0.0,0.0,0.0,0.0,6212.0,1700.0,16028.0,-446.0,784.0,idle
2026-10-07T00:36:27.780,13690.0,0.0,0.0,0.0,0.0,0.0,6268.0,1844.0,15956.0,-434.0,1001.0,idle
2026-10-07T00:36:27.830,13740.0,0.0,0.0,0.0,0.0,0.0,6140.0,1740.0,16228.0,-430.0,1041.0,idle
2026-10-07T00:36:27.883,13790.0,0.0,0.0,0.0,0.0,0.0,6064.0,1928.0,16028.0,-522.0,935.0,idle
2026-10-07T00:36:27.933,13840.0,0.0,0.0,0.0,0.0,0.0,6128.0,1704.0,16068.0,-483.0,1004.0,idle
2026-10-07T00:36:27.980,13890.0,0.0,0.0,0.0,0.0,0.0,6092.0,1812.0,16056.0,-482.0,1037.0,idle
2026-10-07T00:36:28.033,13940.0,0.0,0.0,0.0,0.0,0.0,6180.0,1832.0,15992.0,-515.0,1072.0,idle
2026-10-07T00:36:28.079,13990.0,0.0,0.0,0.0,0.0,0.0,6084.0,1820.0,15952.0,-543.0,1028.0,idle
2026-10-07T00:36:28.130,14040.0,0.0,0.0,0.0,0.0,0.0,6100.0,1836.0,16132.0,-528.0,1035.0,idle
2026-10-07T00:36:28.180,14090.0,0.0,0.0,0.0,0.0,0.0,6184.0,1612.0,16076.0,-459.0,938.0,idle
2026-10-07T00:36:28.233,14140.0,0.0,0.0,0.0,0.0,0.0,6088.0,1852.0,16084.0,-468.0,1048.0,idle
2026-10-07T00:36:28.283,14190.0,0.0,0.0,0.0,0.0,0.0,6104.0,1792.0,16064.0,-532.0,1022.0,idle
2026-10-07T00:36:28.330,14240.0,0.0,0.0,0.0,0.0,0.0,6136.0,1620.0,16048.0,-471.0,1102.0,idle
2026-10-07T00:36:28.380,14290.0,0.0,0.0,0.0,0.0,0.0,6004.0,1892.0,16068.0,-525.0,1074.0,idle
2026-10-07T00:36:28.433,14340.0,0.0,0.0,0.0,0.0,0.0,6000.0,1772.0,16136.0,-490.0,879.0,idle
2026-10-07T00:36:28.480,14390.0,0.0,0.0,0.0,0.0,0.0,6128.0,1672.0,16076.0,-482.0,967.0,idle
2026-10-07T00:36:28.533,14440.0,0.0,0.0,0.0,0.0,0.0,6176.0,1780.0,16084.0,-441.0,990.0,idle
2026-10-07T00:36:28.580,14490.0,0.0,0.0,0.0,0.0,0.0,6060.0,1864.0,16060.0,-487.0,1047.0,idle
2026-10-07T00:36:28.634,14540.0,0.0,0.0,0.0,0.0,0.0,6076.0,1776.0,16088.0,-490.0,1010.0,idle
2026-10-07T00:36:28.681,14590.0,0.0,0.0,0.0,0.0,0.0,6008.0,1788.0,16088.0,-551.0,926.0,idle
2026-10-07T00:36:28.730,14640.0,0.0,0.0,0.0,0.0,0.0,6128.0,1748.0,16020.0,-511.0,956.0,idle
2026-10-07T00:36:28.784,14690.0,0.0,0.0,0.0,0.0,0.0,6100.0,1756.0,16136.0,-500.0,1023.0,idle
2026-10-07T00:36:28.830,14740.0,0.0,0.0,0.0,0.0,0.0,6104.0,1792.0,16132.0,-533.0,1001.0,idle
2026-10-07T00:36:28.880,14790.0,0.0,0.0,0.0,0.0,0.0,6004.0,1696.0,15984.0,-468.0,944.0,idle
2026-10-07T00:36:28.929,14840.0,0.0,0.0,0.0,0.0,0.0,6124.0,1832.0,16092.0,-463.0,900.0,idle
2026-10-07T00:36:28.981,14890.0,0.0,0.0,0.0,0.0,0.0,6172.0,1756.0,15996.0,-461.0,1029.0,idle
2026-10-07T00:36:29.030,14940.0,0.0,0.0,0.0,0.0,0.0,6028.0,1844.0,16048.0,-493.0,949.0,idle
2026-10-07T00:36:29.083,14990.0,0.0,0.0,0.0,0.0,0.0,6208.0,1664.0,16060.0,-431.0,863.0,idle
2026-10-07T00:36:29.130,15040.0,0.0,0.0,0.0,0.0,0.0,6220.0,1696.0,15952.0,-399.0,1052.0,idle
2026-10-07T00:36:29.184,15090.0,0.0,0.0,0.0,0.0,0.0,5940.0,1904.0,16128.0,-554.0,1057.0,idle
2026-10-07T00:36:29.230,15140.0,0.0,0.0,0.0,0.0,0.0,6084.0,1644.0,15940.0,-541.0,884.0,idle
2026-10-07T00:36:29.280,15190.0,0.0,0.0,0.0,0.0,0.0,6196.0,1724.0,16012.0,-465.0,1011.0,idle
2026-10-07T00:36:29.331,15240.0,0.0,0.0,0.0,0.0,0.0,6108.0,1708.0,16040.0,-383.0,1118.0,idle
2026-10-07T00:36:29.383,15290.0,0.0,0.0,0.0,0.0,0.0,6064.0,1832.0,15976.0,-424.0,961.0,idle
2026-10-07T00:36:29.431,15340.0,0.0,0.0,0.0,0.0,0.0,6160.0,1784.0,16084.0,-543.0,935.0,idle
2026-10-07T00:36:29.484,15390.0,0.0,0.0,0.0,0.0,0.0,6188.0,1860.0,16012.0,-512.0,1009.0,idle
2026-10-07T00:36:29.530,15440.0,0.0,0.0,0.0,0.0,0.0,6092.0,1752.0,16172.0,-480.0,1104.0,idle
2026-10-07T00:36:29.580,15490.0,0.0,0.0,0.0,0.0,0.0,5928.0,1924.0,16088.0,-471.0,960.0,idle
2026-10-07T00:36:29.631,15540.0,0.0,0.0,0.0,0.0,0.0,5992.0,1736.0,16068.0,-499.0,917.0,idle
2026-10-07T00:36:29.683,15590.0,0.0,0.0,0.0,0.0,0.0,6088.0,1768.0,15968.0,-447.0,918.0,idle
2026-10-07T00:36:29.730,15640.0,0.0,0.0,0.0,0.0,0.0,6192.0,1740.0,16004.0,-439.0,933.0,idle
2026-10-07T00:36:29.780,15690.0,0.0,0.0,0.0,0.0,0.0,6112.0,1852.0,16080.0,-502.0,990.0,idle
2026-10-07T00:36:29.830,15740.0,0.0,0.0,0.0,0.0,0.0,6104.0,1812.0,16060.0,-567.0,1007.0,idle
2026-10-07T00:36:29.881,15790.0,0.0,0.0,0.0,0.0,0.0,6136.0,1700.0,16100.0,-514.0,1092.0,idle
2026-10-07T00:36:29.933,15840.0,0.0,0.0,0.0,0.0,0.0,6020.0,1816.0,16116.0,-447.0,886.0,idle
2026-10-07T00:36:29.981,15890.0,0.0,0.0,0.0,0.0,0.0,6056.0,1812.0,16044.0,-419.0,987.0,idle
2026-10-07T00:36:30.034,15940.0,0.0,0.0,0.0,0.0,0.0,6048.0,1924.0,16160.0,-542.0,871.0,idle
2026-10-07T00:36:30.081,15990.0,0.0,0.0,0.0,0.0,0.0,6240.0,1516.0,16084.0,-533.0,862.0,idle
2026-10-07T00:36:30.130,16040.0,0.0,0.0,0.0,0.0,0.0,6248.0,1984.0,15944.0,-450.0,948.0,idle
2026-10-07T00:36:30.180,16090.0,0.0,0.0,0.0,0.0,0.0,6252.0,1824.0,16152.0,-463.0,1061.0,idle
2026-10-07T00:36:30.234,16140.0,0.0,0.0,0.0,0.0,0.0,6020.0,1972.0,15956.0,-557.0,1107.0,idle
2026-10-07T00:36:30.281,16190.0,0.0,0.0,0.0,0.0,0.0,6084.0,1696.0,16100.0,-503.0,974.0,idle
2026-10-07T00:36:30.330,16240.0,0.0,0.0,0.0,0.0,0.0,6164.0,1924.0,16100.0,-555.0,887.0,idle
2026-10-07T00:36:30.381,16290.0,0.0,0.0,0.0,0.0,0.0,6148.0,1696.0,15928.0,-559.0,1015.0,idle
2026-10-07T00:36:30.433,16340.0,0.0,0.0,0.0,0.0,0.0,6076.0,1832.0,16084.0,-442.0,895.0,idle
2026-10-07T00:36:30.480,16390.0,0.0,0.0,0.0,0.0,0.0,6212.0,1768.0,16028.0,-537.0,945.0,idle
2026-10-07T00:36:30.534,16440.0,0.0,0.0,0.0,0.0,0.0,6116.0,1796.0,16036.0,-446.0,1020.0,idle
2026-10-07T00:36:30.580,16490.0,0.0,0.0,0.0,0.0,0.0,6228.0,1796.0,15952.0,-471.0,870.0,idle
2026-10-07T00:36:30.633,16540.0,0.0,0.0,0.0,0.0,0.0,6320.0,1864.0,15936.0,-467.0,1032.0,idle
2026-10-07T00:36:30.683,16590.0,0.0,0.0,0.0,0.0,0.0,6272.0,1648.0,16040.0,-497.0,924.0,idle
2026-10-07T00:36:30.730,16640.0,0.0,0.0,0.0,0.0,0.0,6148.0,1876.0,16144.0,-432.0,1255.0,idle
2026-10-07T00:36:30.783,16690.0,0.0,0.0,0.0,0.0,0.0,6000.0,1852.0,16144.0,-513.0,1023.0,idle
2026-10-07T00:36:30.833,16740.0,0.0,0.0,0.0,0.0,0.0,6280.0,1764.0,15936.0,-454.0,861.0,idle
2026-10-07T00:36:30.880,16790.0,0.0,0.0,0.0,0.0,0.0,6300.0,1884.0,15940.0,-443.0,1038.0,idle
2026-10-07T00:36:30.933,16840.0,0.0,0.0,0.0,0.0,0.0,6140.0,1780.0,16000.0,-508.0,1091.0,idle
2026-10-07T00:36:30.980,16890.0,0.0,0.0,0.0,0.0,0.0,6100.0,1896.0,16088.0,-526.0,1028.0,idle
2026-10-07T00:36:31.030,16940.0,0.0,0.0,0.0,0.0,0.0,6156.0,1652.0,16028.0,-514.0,1006.0,idle
2026-10-07T00:36:31.081,16990.0,0.0,0.0,0.0,0.0,0.0,6124.0,1780.0,16100.0,-487.0,1022.0,idle
2026-10-07T00:36:31.133,17040.0,0.0,0.0,0.0,0.0,0.0,6080.0,1832.0,16064.0,-487.0,991.0,idle
2026-10-07T00:36:31.180,17090.0,0.0,0.0,0.0,0.0,0.0,6088.0,1904.0,16128.0,-494.0,938.0,idle
2026-10-07T00:36:31.230,17140.0,0.0,0.0,0.0,0.0,0.0,6212.0,1744.0,16012.0,-506.0,1032.0,idle
2026-10-07T00:36:31.280,17190.0,0.0,0.0,0.0,0.0,0.0,6168.0,1772.0,16024.0,-474.0,911.0,idle
2026-10-07T00:36:31.333,17240.0,0.0,0.0,0.0,0.0,0.0,6284.0,1824.0,16064.0,-464.0,918.0,idle
2026-10-07T00:36:31.381,17290.0,0.0,0.0,0.0,0.0,0.0,6240.0,1904.0,15952.0,-561.0,1005.0,idle
2026-10-07T00:36:31.433,17340.0,0.0,0.0,0.0,0.0,0.0,6060.0,1700.0,16080.0,-547.0,1053.0,idle
2026-10-07T00:36:31.480,17390.0,0.0,0.0,0.0,0.0,0.0,6080.0,1716.0,15988.0,-435.0,1072.0,idle
2026-10-07T00:36:31.530,17440.0,0.0,0.0,0.0,0.0,0.0,6100.0,1968.0,16108.0,-465.0,1035.0,idle
2026-10-07T00:36:31.580,17490.0,0.0,0.0,0.0,0.0,0.0,6084.0,1816.0,16088.0,-584.0,943.0,idle
2026-10-07T00:36:31.631,17540.0,0.0,0.0,0.0,0.0,0.0,6160.0,1680.0,15968.0,-517.0,1013.0,idle
2026-10-07T00:36:31.681,17590.0,0.0,0.0,0.0,0.0,0.0,6168.0,1648.0,16144.0,-411.0,918.0,idle
2026-10-07T00:36:31.731,17640.0,0.0,0.0,0.0,0.0,0.0,6156.0,1928.0,16096.0,-424.0,1042.0,idle
2026-10-07T00:36:31.780,17690.0,0.0,0.0,0.0,0.0,0.0,6160.0,1904.0,16052.0,-553.0,1029.0,idle
2026-10-07T00:36:31.830,17740.0,0.0,0.0,0.0,0.0,0.0,6192.0,1708.0,16160.0,-557.0,1031.0,idle
2026-10-07T00:36:31.880,17790.0,0.0,0.0,0.0,0.0,0.0,6024.0,1836.0,15996.0,-517.0,1017.0,idle
2026-10-07T00:36:31.931,17840.0,0.0,0.0,0.0,0.0,0.0,6040.0,1760.0,15972.0,-525.0,1138.0,idle
2026-10-07T00:36:31.980,17890.0,0.0,0.0,0.0,0.0,0.0,6104.0,1856.0,16124.0,-472.0,977.0,idle
2026-10-07T00:36:32.030,17940.0,0.0,0.0,0.0,0.0,0.0,6080.0,1752.0,16028.0,-526.0,1031.0,idle
2026-10-07T00:36:32.080,17990.0,0.0,0.0,0.0,0.0,0.0,6112.0,1816.0,16036.0,-532.0,958.0,idle
2026-10-07T00:36:32.132,18040.0,0.0,0.0,0.0,0.0,0.0,6172.0,1720.0,16000.0,-500.0,916.0,idle
2026-10-07T00:36:32.180,18090.0,0.0,0.0,0.0,0.0,0.0,6152.0,1788.0,15988.0,-522.0,1012.0,idle
2026-10-07T00:36:32.233,18140.0,0.0,0.0,0.0,0.0,0.0,6112.0,1712.0,16088.0,-480.0,1108.0,idle
2026-10-07T00:36:32.280,18190.0,0.0,0.0,0.0,0.0,0.0,6056.0,1816.0,15956.0,-533.0,943.0,idle
2026-10-07T00:36:32.334,18240.0,0.0,0.0,0.0,0.0,0.0,6080.0,1704.0,16080.0,-475.0,927.0,idle
2026-10-07T00:36:32.380,18290.0,0.0,0.0,0.0,0.0,0.0,6056.0,1880.0,16124.0,-577.0,1014.0,idle
2026-10-07T00:36:32.431,18340.0,0.0,0.0,0.0,0.0,0.0,6220.0,1648.0,15984.0,-490.0,939.0,idle
2026-10-07T00:36:32.480,18390.0,0.0,0.0,0.0,0.0,0.0,6188.0,1836.0,16068.0,-410.0,1049.0,idle
2026-10-07T00:36:32.534,18440.0,0.0,0.0,0.0,0.0,0.0,6172.0,1728.0,15992.0,-453.0,1002.0,idle
2026-10-07T00:36:32.581,18490.0,0.0,0.0,0.0,0.0,0.0,6164.0,1876.0,15980.0,-447.0,973.0,idle
2026-10-07T00:36:32.633,18540.0,0.0,0.0,0.0,0.0,0.0,6180.0,1828.0,16056.0,-453.0,1027.0,idle
2026-10-07T00:36:32.680,18590.0,0.0,0.0,0.0,0.0,0.0,6060.0,1772.0,16008.0,-503.0,1041.0,idle
2026-10-07T00:36:32.730,18640.0,0.0,0.0,0.0,0.0,0.0,6076.0,1872.0,16076.0,-574.0,1019.0,idle
2026-10-07T00:36:32.780,18690.0,0.0,0.0,0.0,0.0,0.0,6084.0,1692.0,15940.0,-482.0,941.0,idle
2026-10-07T00:36:32.831,18740.0,0.0,0.0,0.0,0.0,0.0,6100.0,1800.0,16108.0,-485.0,986.0,idle
2026-10-07T00:36:32.880,18790.0,0.0,0.0,0.0,0.0,0.0,6216.0,1792.0,16080.0,-483.0,939.0,idle
2026-10-07T00:36:32.930,18840.0,0.0,0.0,0.0,0.0,0.0,6248.0,1736.0,16080.0,-519.0,981.0,idle
2026-10-07T00:36:32.981,18890.0,0.0,0.0,0.0,0.0,0.0,6196.0,1808.0,16080.0,-451.0,1013.0,idle
2026-10-07T00:36:33.030,18940.0,0.0,0.0,0.0,0.0,0.0,6196.0,1688.0,15932.0,-488.0,990.0,idle
2026-10-07T00:36:33.080,18990.0,0.0,0.0,0.0,0.0,0.0,6072.0,1780.0,16112.0,-500.0,1071.0,idle
2026-10-07T00:36:33.130,19040.0,0.0,0.0,0.0,0.0,0.0,6080.0,1636.0,16036.0,-499.0,1036.0,idle
2026-10-07T00:36:33.180,19090.0,0.0,0.0,0.0,0.0,0.0,6052.0,1832.0,15956.0,-452.0,949.0,idle
2026-10-07T00:36:33.231,19140.0,0.0,0.0,0.0,0.0,0.0,6140.0,1748.0,16076.0,-505.0,875.0,idle
2026-10-07T00:36:33.280,19190.0,0.0,0.0,0.0,0.0,0.0,6152.0,1624.0,16224.0,-450.0,987.0,idle
2026-10-07T00:36:33.332,19240.0,0.0,0.0,0.0,0.0,0.0,6244.0,1748.0,15872.0,-396.0,931.0,idle
2026-10-07T00:36:33.380,19290.0,0.0,0.0,0.0,0.0,0.0,6104.0,1892.0,15960.0,-516.0,1020.0,idle
2026-10-07T00:36:33.430,19340.0,0.0,0.0,0.0,0.0,0.0,5992.0,1772.0,16108.0,-573.0,1124.0,idle
2026-10-07T00:36:33.481,19390.0,0.0,0.0,0.0,0.0,0.0,6092.0,1740.0,16088.0,-484.0,906.0,idle
2026-10-07T00:36:33.531,19440.0,0.0,0.0,0.0,0.0,0.0,6212.0,1940.0,15956.0,-493.0,891.0,idle
2026-10-07T00:36:33.581,19490.0,0.0,0.0,0.0,0.0,0.0,6164.0,1748.0,16052.0,-510.0,1004.0,idle
2026-10-07T00:36:33.633,19540.0,0.0,0.0,0.0,0.0,0.0,6104.0,1860.0,15920.0,-547.0,1034.0,idle
2026-10-07T00:36:33.680,19590.0,0.0,0.0,0.0,0.0,0.0,6088.0,1784.0,16040.0,-489.0,991.0,idle
2026-10-07T00:36:33.730,19640.0,0.0,0.0,0.0,0.0,0.0,6204.0,1916.0,16088.0,-507.0,897.0,idle
2026-10-07T00:36:33.781,19690.0,0.0,0.0,0.0,0.0,0.0,6260.0,1768.0,15940.0,-510.0,963.0,idle
2026-10-07T00:36:33.830,19740.0,0.0,0.0,0.0,0.0,0.0,6128.0,1852.0,16068.0,-570.0,1075.0,idle
2026-10-07T00:36:33.880,19790.0,0.0,0.0,0.0,0.0,0.0,6064.0,1632.0,16108.0,-530.0,1090.0,idle
2026-10-07T00:36:33.930,19840.0,0.0,0.0,0.0,0.0,0.0,6088.0,1852.0,16036.0,-448.0,873.0,idle
2026-10-07T00:36:33.980,19890.0,0.0,0.0,0.0,0.0,0.0,6180.0,1796.0,15948.0,-448.0,971.0,idle
2026-10-07T00:36:34.031,19940.0,0.0,0.0,0.0,0.0,0.0,6072.0,1868.0,16168.0,-629.0,923.0,idle
