timestamp,t1,t2,t3,t4,t5,ax,ay,az,gx,gy,gz,label
2026-10-07T00:38:14.884,1188.0,0.0,0.0,0.0,0.0,0.0,6396.0,1488.0,16036.0,-490.0,928.0,idle
2026-10-07T00:38:14.919,1238.0,0.0,0.0,0.0,0.0,0.0,6304.0,1480.0,15992.0,-454.0,1004.0,idle
2026-10-07T00:38:14.970,1288.0,0.0,0.0,0.0,0.0,0.0,6180.0,1524.0,16104.0,-418.0,961.0,idle
2026-10-07T00:38:15.024,1338.0,0.0,0.0,0.0,0.0,0.0,6252.0,1576.0,16064.0,-470.0,934.0,idle
2026-10-07T00:38:15.066,1388.0,0.0,0.0,0.0,0.0,0.0,6208.0,1484.0,16108.0,-467.0,936.0,idle
2026-10-07T00:38:15.124,1438.0,0.0,0.0,0.0,0.0,0.0,6292.0,1448.0,16072.0,-476.0,1001.0,idle
2026-10-07T00:38:15.172,1488.0,0.0,0.0,0.0,0.0,0.0,6300.0,1556.0,16044.0,-500.0,946.0,idle
2026-10-07T00:38:15.225,1538.0,0.0,0.0,0.0,0.0,0.0,6292.0,1468.0,15908.0,-500.0,981.0,idle
2026-10-07T00:38:15.278,1588.0,0.0,0.0,0.0,0.0,0.0,6200.0,1528.0,16024.0,-525.0,998.0,idle
2026-10-07T00:38:15.321,1638.0,0.0,0.0,0.0,0.0,0.0,6324.0,1388.0,15972.0,-394.0,982.0,idle
2026-10-07T00:38:15.375,1688.0,0.0,0.0,0.0,0.0,0.0,6268.0,1640.0,15968.0,-439.0,953.0,idle
2026-10-07T00:38:15.418,1738.0,0.0,0.0,0.0,0.0,0.0,6344.0,1488.0,15892.0,-495.0,1012.0,idle
2026-10-07T00:38:15.477,1788.0,0.0,0.0,0.0,0.0,0.0,6296.0,1612.0,16032.0,-496.0,1017.0,idle
2026-10-07T00:38:15.524,1838.0,0.0,0.0,0.0,0.0,0.0,6256.0,1508.0,16032.0,-504.0,1104.0,idle
2026-10-07T00:38:15.575,1888.0,0.0,0.0,0.0,0.0,0.0,6112.0,1624.0,16152.0,-455.0,1052.0,idle
2026-10-07T00:38:15.625,1938.0,0.0,0.0,0.0,0.0,0.0,6184.0,1580.0,16088.0,-508.0,979.0,idle
2026-10-07T00:38:15.673,1988.0,0.0,0.0,0.0,0.0,0.0,6284.0,1560.0,16044.0,-488.0,908.0,idle
2026-10-07T00:38:15.721,2038.0,0.0,0.0,0.0,0.0,0.0,6352.0,1456.0,16072.0,-422.0,1046.0,idle
2026-10-07T00:38:15.769,2088.0,0.0,0.0,0.0,0.0,0.0,6192.0,1600.0,16036.0,-490.0,1031.0,idle
2026-10-07T00:38:15.823,2138.0,0.0,0.0,0.0,0.0,0.0,6268.0,1600.0,16112.0,-540.0,1070.0,idle
2026-10-07T00:38:15.876,2188.0,0.0,0.0,0.0,0.0,0.0,6208.0,1548.0,16088.0,-507.0,1110.0,idle
2026-10-07T00:38:15.919,2238.0,0.0,0.0,0.0,0.0,0.0,6244.0,1376.0,15996.0,-509.0,1018.0,idle
2026-10-07T00:38:15.978,2288.0,0.0,0.0,0.0,0.0,0.0,6192.0,1592.0,16096.0,-454.0,1106.0,idle
2026-10-07T00:38:16.025,2338.0,0.0,0.0,0.0,0.0,0.0,6272.0,1584.0,16048.0,-557.0,1038.0,idle
2026-10-07T00:38:16.073,2388.0,0.0,0.0,0.0,0.0,0.0,6204.0,1584.0,15984.0,-597.0,1018.0,idle
2026-10-07T00:38:16.126,2438.0,0.0,0.0,0.0,0.0,0.0,6128.0,1428.0,16024.0,-500.0,945.0,idle
2026-10-07T00:38:16.175,2488.0,0.0,0.0,0.0,0.0,0.0,6248.0,1516.0,15976.0,-438.0,960.0,idle
2026-10-07T00:38:16.228,2538.0,0.0,0.0,0.0,0.0,0.0,6212.0,1600.0,16212.0,-395.0,860.0,idle
2026-10-07T00:38:16.274,2588.0,0.0,0.0,0.0,0.0,0.0,6312.0,1468.0,16076.0,-393.0,938.0,idle
2026-10-07T00:38:16.324,2638.0,0.0,0.0,0.0,0.0,0.0,6296.0,1588.0,15908.0,-326.0,1079.0,idle
2026-10-07T00:38:16.371,2688.0,0.0,0.0,0.0,0.0,0.0,6228.0,1544.0,16088.0,-439.0,924.0,idle
2026-10-07T00:38:16.420,2738.0,0.0,0.0,0.0,0.0,0.0,6264.0,1684.0,16112.0,-497.0,1024.0,idle
2026-10-07T00:38:16.473,2788.0,0.0,0.0,0.0,0.0,0.0,6128.0,1596.0,16112.0,-568.0,962.0,idle
2026-10-07T00:38:16.527,2838.0,0.0,0.0,0.0,0.0,0.0,6376.0,1400.0,16040.0,-468.0,984.0,idle
2026-10-07T00:38:16.575,2888.0,0.0,0.0,0.0,0.0,0.0,6208.0,1568.0,16092.0,-365.0,984.0,idle
2026-10-07T00:38:16.624,2938.0,0.0,0.0,0.0,0.0,0.0,6244.0,1692.0,16072.0,-487.0,1025.0,idle
2026-10-07T00:38:16.665,2988.0,0.0,0.0,0.0,0.0,0.0,6264.0,1628.0,16056.0,-483.0,1018.0,idle
2026-10-07T00:38:16.725,3038.0,0.0,0.0,0.0,0.0,0.0,6248.0,1520.0,16132.0,-533.0,967.0,idle
2026-10-07T00:38:16.774,3088.0,0.0,0.0,0.0,0.0,0.0,6260.0,1572.0,16060.0,-539.0,1017.0,idle
2026-10-07T00:38:16.828,3138.0,0.0,0.0,0.0,0.0,0.0,6160.0,1524.0,16200.0,-464.0,1010.0,idle
2026-10-07T00:38:16.874,3188.0,0.0,0.0,0.0,0.0,0.0,6148.0,1704.0,15948.0,-553.0,1001.0,idle
2026-10-07T00:38:16.925,3238.0,0.0,0.0,0.0,0.0,0.0,6244.0,1476.0,16096.0,-521.0,991.0,idle
2026-10-07T00:38:16.975,3288.0,0.0,0.0,0.0,0.0,0.0,6140.0,1656.0,16180.0,-478.0,917.0,idle
2026-10-07T00:38:17.025,3338.0,0.0,0.0,0.0,0.0,0.0,6272.0,1544.0,15992.0,-464.0,922.0,idle
2026-10-07T00:38:17.074,3388.0,0.0,0.0,0.0,0.0,0.0,6344.0,1696.0,15908.0,-441.0,1000.0,idle
2026-10-07T00:38:17.125,3438.0,0.0,0.0,0.0,0.0,0.0,6224.0,1576.0,15984.0,-468.0,957.0,idle
2026-10-07T00:38:17.175,3488.0,0.0,0.0,0.0,0.0,0.0,6172.0,1548.0,15952.0,-458.0,972.0,idle
2026-10-07T00:38:17.226,3538.0,0.0,0.0,0.0,0.0,0.0,6292.0,1556.0,16112.0,-490.0,836.0,idle
2026-10-07T00:38:17.274,3588.0,0.0,0.0,0.0,0.0,0.0,6344.0,1652.0,15924.0,-521.0,882.0,idle
2026-10-07T00:38:17.327,3638.0,0.0,0.0,0.0,0.0,0.0,6240.0,1512.0,16036.0,-516.0,1159.0,idle
2026-10-07T00:38:17.376,3688.0,0.0,0.0,0.0,0.0,0.0,6220.0,1612.0,16068.0,-519.0,876.0,idle
2026-10-07T00:38:17.428,3738.0,0.0,0.0,0.0,0.0,0.0,6364.0,1628.0,15836.0,-474.0,931.0,idle
2026-10-07T00:38:17.476,3788.0,0.0,0.0,0.0,0.0,0.0,6288.0,1596.0,16124.0,-461.0,882.0,idle
2026-10-07T00:38:17.527,3838.0,0.0,0.0,0.0,0.0,0.0,6372.0,1552.0,15992.0,-464.0,908.0,idle
2026-10-07T00:38:17.572,3888.0,0.0,0.0,0.0,0.0,0.0,6356.0,1552.0,16220.0,-431.0,984.0,idle
2026-10-07T00:38:17.626,3938.0,0.0,0.0,0.0,0.0,0.0,6356.0,1548.0,15940.0,-532.0,1074.0,idle
2026-10-07T00:38:17.676,3988.0,0.0,0.0,0.0,0.0,0.0,6388.0,1584.0,16004.0,-529.0,991.0,idle
2026-10-07T00:38:17.725,4038.0,0.0,0.0,0.0,0.0,0.0,6248.0,1532.0,15992.0,-503.0,992.0,idle
2026-10-07T00:38:17.775,4088.0,0.0,0.0,0.0,0.0,0.0,6236.0,1548.0,16084.0,-496.0,959.0,idle
2026-10-07T00:38:17.825,4138.0,0.0,0.0,0.0,0.0,0.0,6268.0,1512.0,15976.0,-415.0,982.0,idle
2026-10-07T00:38:17.870,4188.0,0.0,0.0,0.0,0.0,0.0,6412.0,1540.0,16016.0,-454.0,955.0,idle
2026-10-07T00:38:17.924,4238.0,0.0,0.0,0.0,0.0,0.0,6384.0,1548.0,15972.0,-419.0,956.0,idle
2026-10-07T00:38:17.977,4288.0,0.0,0.0,0.0,0.0,0.0,6268.0,1628.0,15984.0,-522.0,1109.0,idle
2026-10-07T00:38:18.019,4338.0,0.0,0.0,0.0,0.0,0.0,6320.0,1440.0,15916.0,-437.0,908.0,idle
2026-10-07T00:38:18.073,4388.0,0.0,0.0,0.0,0.0,0.0,6244.0,1592.0,16028.0,-357.0,1045.0,idle
2026-10-07T00:38:18.126,4438.0,0.0,0.0,0.0,0.0,0.0,6256.0,1640.0,16116.0,-427.0,862.0,idle
2026-10-07T00:38:18.173,4488.0,0.0,0.0,0.0,0.0,0.0,6424.0,1676.0,15872.0,-386.0,950.0,idle
2026-10-07T00:38:18.227,4538.0,0.0,0.0,0.0,0.0,0.0,6408.0,1656.0,15964.0,-435.0,972.0,idle
2026-10-07T00:38:18.265,4588.0,0.0,0.0,0.0,0.0,0.0,6264.0,1700.0,16072.0,-485.0,1045.0,idle
2026-10-07T00:38:18.324,4638.0,0.0,0.0,0.0,0.0,0.0,6376.0,1688.0,15816.0,-482.0,950.0,idle
2026-10-07T00:38:18.376,4688.0,0.0,0.0,0.0,0.0,0.0,6344.0,1628.0,16108.0,-498.0,1086.0,idle
2026-10-07T00:38:18.425,4738.0,0.0,0.0,0.0,0.0,0.0,6296.0,1728.0,16052.0,-492.0,1023.0,idle
2026-10-07T00:38:18.468,4788.0,0.0,0.0,0.0,0.0,0.0,6316.0,1620.0,15964.0,-557.0,1048.0,idle
2026-10-07T00:38:18.521,4838.0,0.0,0.0,0.0,0.0,0.0,6244.0,1684.0,16008.0,-548.0,983.0,idle
2026-10-07T00:38:18.574,4888.0,0.0,0.0,0.0,0.0,0.0,6264.0,1612.0,16168.0,-534.0,1023.0,idle
2026-10-07T00:38:18.628,4938.0,0.0,0.0,0.0,0.0,0.0,6368.0,1524.0,15924.0,-464.0,910.0,idle
2026-10-07T00:38:18.671,4988.0,0.0,0.0,0.0,0.0,0.0,6396.0,1728.0,15976.0,-469.0,1013.0,idle
2026-10-07T00:38:18.724,5038.0,0.0,0.0,0.0,0.0,0.0,6372.0,1636.0,16072.0,-510.0,1006.0,idle
2026-10-07T00:38:18.767,5088.0,0.0,0.0,0.0,0.0,0.0,6320.0,1656.0,16048.0,-485.0,1016.0,idle
2026-10-07T00:38:18.825,5138.0,0.0,0.0,0.0,0.0,0.0,6268.0,1620.0,16088.0,-494.0,996.0,idle
2026-10-07T00:38:18.873,5188.0,0.0,0.0,0.0,0.0,0.0,6272.0,1652.0,15836.0,-481.0,979.0,idle
2026-10-07T00:38:18.927,5238.0,0.0,0.0,0.0,0.0,0.0,6264.0,1504.0,16136.0,-397.0,942.0,idle
2026-10-07T00:38:18.970,5288.0,0.0,0.0,0.0,0.0,0.0,6324.0,1624.0,15772.0,-474.0,961.0,idle
2026-10-07T00:38:19.023,5338.0,0.0,0.0,0.0,0.0,0.0,6304.0,1764.0,16016.0,-422.0,948.0,idle
2026-10-07T00:38:19.071,5388.0,0.0,0.0,0.0,0.0,0.0,6300.0,1808.0,15872.0,-508.0,1040.0,idle
2026-10-07T00:38:19.119,5438.0,0.0,0.0,0.0,0.0,0.0,6332.0,1660.0,15968.0,-485.0,1007.0,idle
2026-10-07T00:38:19.172,5488.0,0.0,0.0,0.0,0.0,0.0,6196.0,1708.0,16128.0,-463.0,945.0,idle
2026-10-07T00:38:19.226,5538.0,0.0,0.0,0.0,0.0,0.0,6368.0,1664.0,16100.0,-492.0,1019.0,idle
2026-10-07T00:38:19.274,5588.0,0.0,0.0,0.0,0.0,0.0,6248.0,1692.0,15960.0,-501.0,951.0,idle
2026-10-07T00:38:19.321,5638.0,0.0,0.0,0.0,0.0,0.0,6336.0,1408.0,15928.0,-462.0,881.0,idle
2026-10-07T00:38:19.375,5688.0,0.0,0.0,0.0,0.0,0.0,6248.0,1832.0,16036.0,-424.0,873.0,idle
2026-10-07T00:38:19.423,5738.0,0.0,0.0,0.0,0.0,0.0,6404.0,1600.0,15848.0,-455.0,891.0,idle
2026-10-07T00:38:19.471,5788.0,0.0,0.0,0.0,0.0,0.0,6316.0,1672.0,15980.0,-381.0,898.0,idle
2026-10-07T00:38:19.525,5838.0,0.0,0.0,0.0,0.0,0.0,6408.0,1732.0,16000.0,-429.0,895.0,idle
2026-10-07T00:38:19.578,5888.0,0.0,0.0,0.0,0.0,0.0,6352.0,1708.0,15956.0,-474.0,943.0,idle
2026-10-07T00:38:19.620,5938.0,0.0,0.0,0.0,0.0,0.0,6572.0,1644.0,15952.0,-438.0,773.0,idle
2026-10-07T00:38:19.673,5988.0,0.0,0.0,0.0,0.0,0.0,6488.0,1804.0,15928.0,-446.0,1031.0,idle
2026-10-07T00:38:19.716,6038.0,0.0,0.0,0.0,0.0,0.0,6288.0,1916.0,16076.0,-498.0,1206.0,idle
2026-10-07T00:38:19.775,6088.0,0.0,0.0,0.0,0.0,0.0,6276.0,1704.0,15840.0,-560.0,808.0,idle
2026-10-07T00:38:19.823,6138.0,0.0,0.0,0.0,0.0,0.0,6516.0,1640.0,15792.0,-436.0,947.0,idle
2026-10-07T00:38:19.876,6188.0,0.0,0.0,0.0,0.0,0.0,6456.0,1784.0,16040.0,-474.0,1138.0,idle
2026-10-07T00:38:19.924,6238.0,0.0,0.0,0.0,0.0,0.0,6356.0,1660.0,15768.0,-514.0,1006.0,idle
2026-10-07T00:38:19.972,6288.0,0.0,0.0,0.0,0.0,0.0,6404.0,1768.0,16012.0,-559.0,998.0,idle
2026-10-07T00:38:20.025,6338.0,0.0,0.0,0.0,0.0,0.0,6500.0,1552.0,16044.0,-469.0,1096.0,idle
2026-10-07T00:38:20.079,6388.0,0.0,0.0,0.0,0.0,0.0,6280.0,1856.0,16100.0,-451.0,1120.0,idle
2026-10-07T00:38:20.122,6438.0,0.0,0.0,0.0,0.0,0.0,6276.0,1768.0,15956.0,-481.0,987.0,idle
2026-10-07T00:38:20.175,6488.0,0.0,0.0,0.0,0.0,0.0,6320.0,1624.0,16120.0,-473.0,1005.0,idle
2026-10-07T00:38:20.218,6538.0,0.0,0.0,0.0,0.0,0.0,6484.0,1584.0,15856.0,-359.0,894.0,idle
2026-10-07T00:38:20.276,6588.0,0.0,0.0,0.0,0.0,0.0,6544.0,1684.0,15980.0,-295.0,1087.0,idle
2026-10-07T00:38:20.325,6638.0,0.0,0.0,0.0,0.0,0.0,6352.0,1776.0,15844.0,-207.0,1239.0,idle
2026-10-07T00:38:20.367,6688.0,0.0,0.0,0.0,0.0,0.0,6060.0,1916.0,16156.0,-270.0,1012.0,idle
2026-10-07T00:38:20.421,6738.0,0.0,0.0,0.0,0.0,0.0,6200.0,1828.0,15876.0,-333.0,821.0,idle
2026-10-07T00:38:20.474,6788.0,0.0,0.0,0.0,0.0,0.0,6440.0,1744.0,15920.0,-249.0,851.0,idle
2026-10-07T00:38:20.527,6838.0,0.0,0.0,0.0,0.0,0.0,6592.0,1892.0,15896.0,-251.0,1002.0,idle
2026-10-07T00:38:20.570,6888.0,0.0,0.0,0.0,0.0,0.0,6276.0,1932.0,15856.0,-207.0,1212.0,idle
2026-10-07T00:38:20.623,6938.0,0.0,0.0,0.0,0.0,0.0,6320.0,2128.0,15852.0,-408.0,764.0,idle
2026-10-07T00:38:20.666,6988.0,0.0,0.0,0.0,0.0,0.0,6448.0,1944.0,15820.0,-549.0,1056.0,idle
2026-10-07T00:38:20.719,7038.0,0.0,0.0,0.0,0.0,0.0,6428.0,1952.0,15820.0,-573.0,1151.0,idle
2026-10-07T00:38:20.772,7088.0,0.0,0.0,0.0,0.0,0.0,6388.0,1952.0,15928.0,-587.0,1093.0,idle
2026-10-07T00:38:20.826,7138.0,0.0,0.0,0.0,0.0,0.0,6364.0,1824.0,15824.0,-601.0,1099.0,idle
2026-10-07T00:38:20.874,7188.0,0.0,0.0,0.0,0.0,0.0,6304.0,1804.0,16024.0,-656.0,1009.0,idle
2026-10-07T00:38:20.926,7238.0,0.0,0.0,0.0,0.0,0.0,6160.0,1776.0,16016.0,-602.0,1283.0,idle
2026-10-07T00:38:20.975,7288.0,0.0,0.0,0.0,0.0,0.0,6168.0,1728.0,16216.0,-344.0,848.0,idle
2026-10-07T00:38:21.023,7338.0,0.0,0.0,0.0,0.0,0.0,6472.0,2180.0,15896.0,-664.0,845.0,idle
2026-10-07T00:38:21.071,7388.0,0.0,0.0,0.0,0.0,0.0,6512.0,1696.0,15884.0,-749.0,1020.0,idle
2026-10-07T00:38:21.124,7438.0,0.0,0.0,0.0,0.0,0.0,6144.0,1752.0,16096.0,-617.0,1147.0,idle
2026-10-07T00:38:21.167,7488.0,0.0,0.0,0.0,0.0,0.0,6452.0,1600.0,15896.0,-439.0,733.0,idle
2026-10-07T00:38:21.220,7538.0,0.0,0.0,0.0,0.0,0.0,6460.0,1844.0,15908.0,-358.0,1041.0,idle
2026-10-07T00:38:21.273,7588.0,0.0,0.0,0.0,0.0,0.0,6408.0,1908.0,16052.0,-485.0,1041.0,idle
2026-10-07T00:38:21.327,7638.0,0.0,0.0,0.0,0.0,0.0,6296.0,1936.0,15940.0,-517.0,1169.0,idle
2026-10-07T00:38:21.375,7688.0,0.0,0.0,0.0,0.0,0.0,6124.0,1796.0,16040.0,-569.0,969.0,idle
2026-10-07T00:38:21.423,7738.0,0.0,0.0,0.0,0.0,0.0,6252.0,1784.0,15940.0,-478.0,749.0,idle
2026-10-07T00:38:21.477,7788.0,0.0,0.0,0.0,0.0,0.0,6324.0,1812.0,16056.0,-458.0,1009.0,idle
2026-10-07T00:38:21.523,7838.0,0.0,0.0,0.0,0.0,0.0,6512.0,1880.0,15756.0,-397.0,720.0,idle
2026-10-07T00:38:21.572,7888.0,0.0,0.0,0.0,0.0,0.0,6604.0,2120.0,16108.0,-696.0,1115.0,idle
2026-10-07T00:38:21.626,7938.0,0.0,0.0,0.0,0.0,0.0,6276.0,1568.0,16088.0,-602.0,1022.0,idle
2026-10-07T00:38:21.673,7988.0,0.0,0.0,0.0,0.0,0.0,5904.0,1748.0,16148.0,-578.0,964.0,idle
2026-10-07T00:38:21.722,8038.0,0.0,0.0,0.0,0.0,0.0,6352.0,1668.0,15916.0,-419.0,741.0,idle
2026-10-07T00:38:21.775,8088.0,0.0,0.0,0.0,0.0,0.0,6540.0,1872.0,15956.0,-386.0,844.0,idle
2026-10-07T00:38:21.828,8138.0,0.0,0.0,0.0,0.0,0.0,6420.0,1984.0,15916.0,-499.0,1115.0,idle
2026-10-07T00:38:21.871,8188.0,0.0,0.0,0.0,0.0,0.0,6188.0,1808.0,16040.0,-574.0,1071.0,idle
2026-10-07T00:38:21.927,8238.0,0.0,0.0,0.0,0.0,0.0,6412.0,1788.0,16024.0,-475.0,827.0,idle
2026-10-07T00:38:21.975,8288.0,0.0,0.0,0.0,0.0,0.0,6576.0,1696.0,15708.0,-465.0,935.0,idle
2026-10-07T00:38:22.025,8338.0,0.0,0.0,0.0,0.0,0.0,6316.0,1868.0,16008.0,-317.0,1178.0,idle
2026-10-07T00:38:22.073,8388.0,0.0,0.0,0.0,0.0,0.0,6128.0,1848.0,15984.0,-438.0,962.0,idle
2026-10-07T00:38:22.127,8438.0,0.0,0.0,0.0,0.0,0.0,6368.0,1720.0,15984.0,-394.0,746.0,idle
2026-10-07T00:38:22.170,8488.0,0.0,0.0,0.0,0.0,0.0,6544.0,1916.0,15896.0,-374.0,922.0,idle
2026-10-07T00:38:22.223,8538.0,0.0,0.0,0.0,0.0,0.0,6500.0,2012.0,15972.0,-498.0,1111.0,idle
2026-10-07T00:38:22.266,8588.0,0.0,0.0,0.0,0.0,0.0,6156.0,1852.0,16112.0,-498.0,1234.0,idle
2026-10-07T00:38:22.326,8638.0,0.0,0.0,0.0,0.0,0.0,6244.0,1788.0,16044.0,-523.0,984.0,idle
2026-10-07T00:38:22.374,8688.0,0.0,0.0,0.0,0.0,0.0,6492.0,1740.0,15908.0,-483.0,791.0,idle
2026-10-07T00:38:22.426,8738.0,0.0,0.0,0.0,0.0,0.0,6564.0,1876.0,16056.0,-445.0,1002.0,idle
2026-10-07T00:38:22.469,8788.0,0.0,0.0,0.0,0.0,0.0,6436.0,1876.0,15904.0,-470.0,970.0,idle
2026-10-07T00:38:22.524,8838.0,0.0,0.0,0.0,0.0,0.0,6416.0,1768.0,15892.0,-434.0,1030.0,idle
2026-10-07T00:38:22.575,8888.0,0.0,0.0,0.0,0.0,0.0,6344.0,1988.0,15948.0,-451.0,1042.0,idle
2026-10-07T00:38:22.622,8938.0,0.0,0.0,0.0,0.0,0.0,6232.0,1936.0,16124.0,-581.0,845.0,idle
2026-10-07T00:38:22.671,8988.0,0.0,0.0,0.0,0.0,0.0,6600.0,1704.0,15792.0,-506.0,680.0,idle
2026-10-07T00:38:22.724,9038.0,0.0,0.0,0.0,0.0,0.0,6492.0,1916.0,16004.0,-385.0,1085.0,idle
2026-10-07T00:38:22.767,9088.0,0.0,0.0,0.0,0.0,0.0,6464.0,1944.0,15764.0,-585.0,1001.0,idle
2026-10-07T00:38:22.821,9138.0,0.0,0.0,0.0,0.0,0.0,6484.0,1832.0,15972.0,-446.0,1056.0,idle
2026-10-07T00:38:22.873,9188.0,0.0,0.0,0.0,0.0,0.0,6344.0,1960.0,15856.0,-581.0,970.0,idle
2026-10-07T00:38:22.924,9238.0,0.0,0.0,0.0,0.0,0.0,6492.0,1660.0,15992.0,-430.0,936.0,idle
2026-10-07T00:38:22.975,9288.0,0.0,0.0,0.0,0.0,0.0,6580.0,1888.0,15700.0,-376.0,932.0,idle
2026-10-07T00:38:23.026,9338.0,0.0,0.0,0.0,0.0,0.0,6528.0,1844.0,15944.0,-391.0,1139.0,idle
2026-10-07T00:38:23.074,9388.0,0.0,0.0,0.0,0.0,0.0,6304.0,2020.0,15992.0,-430.0,1227.0,idle
2026-10-07T00:38:23.122,9438.0,0.0,0.0,0.0,0.0,0.0,6268.0,1944.0,16032.0,-558.0,875.0,idle
2026-10-07T00:38:23.172,9488.0,0.0,0.0,0.0,0.0,0.0,6368.0,1932.0,15876.0,-609.0,922.0,idle
2026-10-07T00:38:23.218,9538.0,0.0,0.0,0.0,0.0,0.0,6584.0,1664.0,15912.0,-548.0,906.0,idle
2026-10-07T00:38:23.269,9588.0,0.0,0.0,0.0,0.0,0.0,6660.0,1876.0,15644.0,-448.0,867.0,idle
2026-10-07T00:38:23.321,9638.0,0.0,0.0,0.0,0.0,0.0,6564.0,1916.0,15988.0,-448.0,1162.0,idle
2026-10-07T00:38:23.375,9688.0,0.0,0.0,0.0,0.0,0.0,6316.0,1864.0,15896.0,-510.0,929.0,idle
2026-10-07T00:38:23.426,9738.0,0.0,0.0,0.0,0.0,0.0,6468.0,1788.0,15756.0,-401.0,995.0,idle
2026-10-07T00:38:23.473,9788.0,0.0,0.0,0.0,0.0,0.0,6284.0,1860.0,15948.0,-385.0,1035.0,idle
2026-10-07T00:38:23.525,9838.0,0.0,0.0,0.0,0.0,0.0,6392.0,2076.0,15812.0,-552.0,967.0,idle
2026-10-07T00:38:23.567,9888.0,0.0,0.0,0.0,0.0,0.0,6592.0,1932.0,15900.0,-549.0,1017.0,idle
2026-10-07T00:38:23.623,9938.0,0.0,0.0,0.0,0.0,0.0,6428.0,1920.0,16044.0,-698.0,949.0,idle
2026-10-07T00:38:23.674,9988.0,0.0,0.0,0.0,0.0,0.0,6312.0,1592.0,16024.0,-638.0,1153.0,idle
2026-10-07T00:38:23.719,10038.0,0.0,0.0,0.0,0.0,0.0,6432.0,1652.0,15944.0,-375.0,672.0,idle
2026-10-07T00:38:23.770,10088.0,0.0,0.0,0.0,0.0,0.0,6836.0,1964.0,15784.0,-343.0,822.0,idle
2026-10-07T00:38:23.823,10138.0,0.0,0.0,0.0,0.0,0.0,6656.0,2112.0,15856.0,-560.0,1137.0,idle
2026-10-07T00:38:23.866,10188.0,0.0,0.0,0.0,0.0,0.0,6340.0,1752.0,15940.0,-641.0,1170.0,idle
2026-10-07T00:38:23.927,10238.0,0.0,0.0,0.0,0.0,0.0,6256.0,1692.0,15944.0,-516.0,1023.0,idle
2026-10-07T00:38:23.974,10288.0,0.0,0.0,0.0,0.0,0.0,6656.0,1996.0,15884.0,-459.0,671.0,idle
2026-10-07T00:38:24.025,10338.0,0.0,0.0,0.0,0.0,0.0,6736.0,2064.0,15800.0,-601.0,1159.0,idle
2026-10-07T00:38:24.068,10388.0,0.0,0.0,0.0,0.0,0.0,6164.0,1748.0,15980.0,-606.0,1404.0,idle
2026-10-07T00:38:24.127,10438.0,0.0,0.0,0.0,0.0,0.0,6020.0,1644.0,16124.0,-510.0,907.0,idle
2026-10-07T00:38:24.175,10488.0,0.0,0.0,0.0,0.0,0.0,6568.0,1736.0,15836.0,-406.0,638.0,idle
2026-10-07T00:38:24.222,10538.0,0.0,0.0,0.0,0.0,0.0,6836.0,1884.0,15792.0,-386.0,872.0,idle
2026-10-07T00:38:24.271,10588.0,0.0,0.0,0.0,0.0,0.0,6604.0,1988.0,16136.0,-543.0,1290.0,idle
2026-10-07T00:38:24.324,10638.0,0.0,0.0,0.0,0.0,0.0,6428.0,1764.0,15856.0,-645.0,1041.0,idle
2026-10-07T00:38:24.377,10688.0,0.0,0.0,0.0,0.0,0.0,6352.0,1768.0,16000.0,-544.0,1065.0,idle
2026-10-07T00:38:24.420,10738.0,0.0,0.0,0.0,0.0,0.0,6416.0,1712.0,15912.0,-396.0,930.0,idle
2026-10-07T00:38:24.473,10788.0,0.0,0.0,0.0,0.0,0.0,6504.0,2044.0,15772.0,-521.0,1082.0,idle
2026-10-07T00:38:24.521,10838.0,0.0,0.0,0.0,0.0,0.0,6404.0,1772.0,16004.0,-621.0,1018.0,idle
2026-10-07T00:38:24.575,10888.0,0.0,0.0,0.0,0.0,0.0,6424.0,1760.0,15868.0,-563.0,898.0,idle
2026-10-07T00:38:24.623,10938.0,0.0,0.0,0.0,0.0,0.0,6508.0,1816.0,15936.0,-527.0,1151.0,idle
2026-10-07T00:38:24.666,10988.0,0.0,0.0,0.0,0.0,0.0,6408.0,1916.0,15864.0,-522.0,1059.0,idle
2026-10-07T00:38:24.724,11038.0,0.0,0.0,0.0,0.0,0.0,6348.0,2008.0,15820.0,-623.0,1050.0,idle
2026-10-07T00:38:24.772,11088.0,0.0,0.0,0.0,0.0,0.0,6276.0,1920.0,16016.0,-764.0,952.0,idle
2026-10-07T00:38:24.826,11138.0,0.0,0.0,0.0,0.0,0.0,6432.0,1616.0,15924.0,-772.0,809.0,idle
2026-10-07T00:38:24.869,11188.0,0.0,0.0,0.0,0.0,0.0,6516.0,1528.0,15936.0,-572.0,891.0,idle
2026-10-07T00:38:24.922,11238.0,0.0,0.0,0.0,0.0,0.0,6620.0,1556.0,16008.0,-408.0,1065.0,idle
2026-10-07T00:38:24.975,11288.0,0.0,0.0,0.0,0.0,0.0,6476.0,1848.0,15880.0,-437.0,1105.0,idle
2026-10-07T00:38:25.018,11338.0,0.0,0.0,0.0,0.0,0.0,6428.0,1696.0,15940.0,-494.0,988.0,idle
2026-10-07T00:38:25.071,11388.0,0.0,0.0,0.0,0.0,0.0,6316.0,1828.0,15948.0,-395.0,1003.0,idle
2026-10-07T00:38:25.124,11438.0,0.0,0.0,0.0,0.0,0.0,6384.0,1656.0,15940.0,-429.0,924.0,idle
2026-10-07T00:38:25.175,11488.0,0.0,0.0,0.0,0.0,0.0,6392.0,1756.0,15952.0,-355.0,913.0,idle
2026-10-07T00:38:25.225,11538.0,0.0,0.0,0.0,0.0,0.0,6484.0,1760.0,16032.0,-407.0,792.0,idle
2026-10-07T00:38:25.274,11588.0,0.0,0.0,0.0,0.0,0.0,6472.0,1856.0,15880.0,-377.0,899.0,idle
2026-10-07T00:38:25.319,11638.0,0.0,0.0,0.0,0.0,0.0,6528.0,1804.0,15892.0,-420.0,820.0,idle
2026-10-07T00:38:25.370,11688.0,0.0,0.0,0.0,0.0,0.0,6500.0,1816.0,15960.0,-415.0,931.0,idle
2026-10-07T00:38:25.423,11738.0,0.0,0.0,0.0,0.0,0.0,6556.0,1724.0,15856.0,-443.0,825.0,idle
2026-10-07T00:38:25.467,11788.0,0.0,0.0,0.0,0.0,0.0,6520.0,1820.0,15824.0,-329.0,1024.0,idle
2026-10-07T00:38:25.526,11838.0,0.0,0.0,0.0,0.0,0.0,6528.0,1848.0,15948.0,-379.0,995.0,idle
2026-10-07T00:38:25.574,11888.0,0.0,0.0,0.0,0.0,0.0,6524.0,1828.0,15988.0,-330.0,937.0,idle
2026-10-07T00:38:25.626,11938.0,0.0,0.0,0.0,0.0,0.0,6576.0,1864.0,15864.0,-428.0,873.0,idle
2026-10-07T00:38:25.668,11988.0,0.0,0.0,0.0,0.0,0.0,6712.0,1768.0,15760.0,-458.0,923.0,idle
2026-10-07T00:38:25.722,12038.0,0.0,0.0,0.0,0.0,0.0,6588.0,1972.0,15996.0,-461.0,1090.0,idle
2026-10-07T00:38:25.775,12088.0,0.0,0.0,0.0,0.0,0.0,6456.0,1740.0,15876.0,-542.0,951.0,idle
2026-10-07T00:38:25.822,12138.0,0.0,0.0,0.0,0.0,0.0,6488.0,1808.0,15968.0,-424.0,1008.0,idle
2026-10-07T00:38:25.871,12188.0,0.0,0.0,0.0,0.0,0.0,6468.0,1928.0,15948.0,-470.0,1033.0,idle
2026-10-07T00:38:25.925,12238.0,0.0,0.0,0.0,0.0,0.0,6552.0,1832.0,15804.0,-522.0,982.0,idle
2026-10-07T00:38:25.969,12288.0,0.0,0.0,0.0,0.0,0.0,6500.0,1792.0,15896.0,-455.0,1066.0,idle
2026-10-07T00:38:26.020,12338.0,0.0,0.0,0.0,0.0,0.0,6464.0,1776.0,15856.0,-461.0,924.0,idle
2026-10-07T00:38:26.074,12388.0,0.0,0.0,0.0,0.0,0.0,6536.0,2020.0,15852.0,-442.0,978.0,idle
2026-10-07T00:38:26.116,12438.0,0.0,0.0,0.0,0.0,0.0,6512.0,1904.0,15796.0,-457.0,1075.0,idle
2026-10-07T00:38:26.173,12488.0,0.0,0.0,0.0,0.0,0.0,6568.0,1920.0,15952.0,-504.0,947.0,idle
2026-10-07T00:38:26.225,12538.0,0.0,0.0,0.0,0.0,0.0,6560.0,1896.0,15688.0,-444.0,977.0,idle
2026-10-07T00:38:26.273,12588.0,0.0,0.0,0.0,0.0,0.0,6568.0,1848.0,15884.0,-495.0,969.0,idle
2026-10-07T00:38:26.321,12638.0,0.0,0.0,0.0,0.0,0.0,6472.0,1948.0,15780.0,-510.0,1036.0,idle
2026-10-07T00:38:26.372,12688.0,0.0,0.0,0.0,0.0,0.0,6492.0,1944.0,15840.0,-521.0,967.0,idle
2026-10-07T00:38:26.426,12738.0,0.0,0.0,0.0,0.0,0.0,6620.0,1980.0,15852.0,-554.0,910.0,idle
2026-10-07T00:38:26.472,12788.0,0.0,0.0,0.0,0.0,0.0,6560.0,1856.0,15836.0,-468.0,1029.0,idle
2026-10-07T00:38:26.522,12838.0,0.0,0.0,0.0,0.0,0.0,6568.0,1828.0,15852.0,-495.0,1032.0,idle
2026-10-07T00:38:26.575,12888.0,0.0,0.0,0.0,0.0,0.0,6516.0,1872.0,16012.0,-536.0,970.0,idle
2026-10-07T00:38:26.623,12938.0,0.0,0.0,0.0,0.0,0.0,6568.0,1872.0,15832.0,-510.0,963.0,idle
2026-10-07T00:38:26.674,12988.0,0.0,0.0,0.0,0.0,0.0,6528.0,1884.0,15828.0,-474.0,1073.0,idle
2026-10-07T00:38:26.714,13038.0,0.0,0.0,0.0,0.0,0.0,6532.0,1924.0,15840.0,-548.0,1048.0,idle
2026-10-07T00:38:26.775,13088.0,0.0,0.0,0.0,0.0,0.0,6364.0,1732.0,16000.0,-501.0,1036.0,idle
2026-10-07T00:38:26.823,13138.0,0.0,0.0,0.0,0.0,0.0,6432.0,1776.0,15852.0,-444.0,870.0,idle
2026-10-07T00:38:26.874,13188.0,0.0,0.0,0.0,0.0,0.0,6568.0,1960.0,15868.0,-362.0,897.0,idle
2026-10-07T00:38:26.918,13238.0,0.0,0.0,0.0,0.0,0.0,6544.0,2024.0,15872.0,-489.0,977.0,idle
2026-10-07T00:38:26.972,13288.0,0.0,0.0,0.0,0.0,0.0,6448.0,1844.0,15988.0,-510.0,1094.0,idle
2026-10-07T00:38:27.023,13338.0,0.0,0.0,0.0,0.0,0.0,6576.0,1772.0,15912.0,-533.0,990.0,idle
2026-10-07T00:38:27.072,13388.0,0.0,0.0,0.0,0.0,0.0,6488.0,1944.0,15884.0,-467.0,894.0,idle
2026-10-07T00:38:27.124,13438.0,0.0,0.0,0.0,0.0,0.0,6600.0,1848.0,15924.0,-501.0,886.0,idle
2026-10-07T00:38:27.172,13488.0,0.0,0.0,0.0,0.0,0.0,6516.0,1824.0,15900.0,-435.0,1014.0,idle
2026-10-07T00:38:27.226,13538.0,0.0,0.0,0.0,0.0,0.0,6576.0,1776.0,15988.0,-446.0,883.0,idle
2026-10-07T00:38:27.272,13588.0,0.0,0.0,0.0,0.0,0.0,6584.0,1924.0,15800.0,-366.0,862.0,idle
2026-10-07T00:38:27.324,13638.0,0.0,0.0,0.0,0.0,0.0,6704.0,2052.0,15780.0,-448.0,967.0,idle
2026-10-07T00:38:27.373,13688.0,0.0,0.0,0.0,0.0,0.0,6696.0,1792.0,15840.0,-493.0,941.0,idle
2026-10-07T00:38:27.420,13738.0,0.0,0.0,0.0,0.0,0.0,6644.0,1984.0,15768.0,-574.0,938.0,idle
2026-10-07T00:38:27.473,13788.0,0.0,0.0,0.0,0.0,0.0,6556.0,1880.0,15856.0,-542.0,1145.0,idle
2026-10-07T00:38:27.524,13838.0,0.0,0.0,0.0,0.0,0.0,6472.0,1940.0,15928.0,-523.0,1066.0,idle
2026-10-07T00:38:27.573,13888.0,0.0,0.0,0.0,0.0,0.0,6548.0,1884.0,15696.0,-499.0,907.0,idle
2026-10-07T00:38:27.620,13938.0,0.0,0.0,0.0,0.0,0.0,6684.0,1928.0,15864.0,-499.0,1069.0,idle
2026-10-07T00:38:27.674,13988.0,0.0,0.0,0.0,0.0,0.0,6688.0,1860.0,15816.0,-538.0,1097.0,idle
2026-10-07T00:38:27.717,14038.0,0.0,0.0,0.0,0.0,0.0,6456.0,1916.0,15936.0,-558.0,983.0,idle
2026-10-07T00:38:27.773,14088.0,0.0,0.0,0.0,0.0,0.0,6536.0,1824.0,15872.0,-494.0,991.0,idle
2026-10-07T00:38:27.823,14138.0,0.0,0.0,0.0,0.0,0.0,6632.0,1896.0,15736.0,-501.0,1022.0,idle
2026-10-07T00:38:27.874,14188.0,0.0,0.0,0.0,0.0,0.0,6520.0,1892.0,15940.0,-550.0,1026.0,idle
2026-10-07T00:38:27.919,14238.0,0.0,0.0,0.0,0.0,0.0,6552.0,1820.0,15824.0,-517.0,1032.0,idle
2026-10-07T00:38:27.973,14288.0,0.0,0.0,0.0,0.0,0.0,6468.0,1928.0,15900.0,-542.0,955.0,idle
2026-10-07T00:38:28.015,14338.0,0.0,0.0,0.0,0.0,0.0,6608.0,1768.0,15792.0,-466.0,931.0,idle
2026-10-07T00:38:28.073,14388.0,0.0,0.0,0.0,0.0,0.0,6604.0,1972.0,15904.0,-488.0,969.0,idle
2026-10-07T00:38:28.122,14438.0,0.0,0.0,0.0,0.0,0.0,6560.0,1852.0,15932.0,-577.0,1011.0,idle
2026-10-07T00:38:28.176,14488.0,0.0,0.0,0.0,0.0,0.0,6504.0,1772.0,15936.0,-541.0,945.0,idle
2026-10-07T00:38:28.223,14538.0,0.0,0.0,0.0,0.0,0.0,6552.0,1852.0,15952.0,-495.0,1020.0,idle
2026-10-07T00:38:28.274,14588.0,0.0,0.0,0.0,0.0,0.0,6464.0,1964.0,15772.0,-496.0,1096.0,idle
2026-10-07T00:38:28.324,14638.0,0.0,0.0,0.0,0.0,0.0,6456.0,1808.0,15928.0,-543.0,934.0,idle
2026-10-07T00:38:28.374,14688.0,0.0,0.0,0.0,0.0,0.0,6576.0,1928.0,15936.0,-441.0,998.0,idle
2026-10-07T00:38:28.422,14738.0,0.0,0.0,0.0,0.0,0.0,6560.0,1792.0,15824.0,-463.0,1044.0,idle
2026-10-07T00:38:28.474,14788.0,0.0,0.0,0.0,0.0,0.0,6568.0,1956.0,15876.0,-448.0,1029.0,idle
2026-10-07T00:38:28.518,14838.0,0.0,0.0,0.0,0.0,0.0,6640.0,1956.0,15904.0,-562.0,1039.0,idle
2026-10-07T00:38:28.574,14888.0,0.0,0.0,0.0,0.0,0.0,6568.0,1828.0,15848.0,-485.0,1086.0,idle
2026-10-07T00:38:28.623,14938.0,0.0,0.0,0.0,0.0,0.0,6488.0,1996.0,15888.0,-566.0,1090.0,idle
2026-10-07T00:38:28.675,14988.0,0.0,0.0,0.0,0.0,0.0,6536.0,1840.0,15876.0,-500.0,975.0,idle
2026-10-07T00:38:28.719,15038.0,0.0,0.0,0.0,0.0,0.0,6512.0,1912.0,16000.0,-523.0,1085.0,idle
2026-10-07T00:38:28.773,15088.0,0.0,0.0,0.0,0.0,0.0,6432.0,1960.0,16036.0,-545.0,1028.0,idle
2026-10-07T00:38:28.824,15138.0,0.0,0.0,0.0,0.0,0.0,6600.0,1756.0,15868.0,-488.0,911.0,idle
2026-10-07T00:38:28.869,15188.0,0.0,0.0,0.0,0.0,0.0,6672.0,1964.0,15848.0,-483.0,1098.0,idle
2026-10-07T00:38:28.923,15238.0,0.0,0.0,0.0,0.0,0.0,6520.0,1892.0,15968.0,-583.0,1048.0,idle
2026-10-07T00:38:28.975,15288.0,0.0,0.0,0.0,0.0,0.0,6560.0,1844.0,15828.0,-523.0,1097.0,idle
2026-10-07T00:38:29.018,15338.0,0.0,0.0,0.0,0.0,0.0,6404.0,2020.0,15872.0,-488.0,1211.0,idle
2026-10-07T00:38:29.076,15388.0,0.0,0.0,0.0,0.0,0.0,6316.0,1920.0,15912.0,-612.0,916.0,idle
2026-10-07T00:38:29.125,15438.0,0.0,0.0,0.0,0.0,0.0,6588.0,1808.0,15756.0,-487.0,981.0,idle
2026-10-07T00:38:29.168,15488.0,0.0,0.0,0.0,0.0,0.0,6540.0,1844.0,15928.0,-388.0,949.0,idle
2026-10-07T00:38:29.221,15538.0,0.0,0.0,0.0,0.0,0.0,6524.0,2024.0,15768.0,-407.0,1064.0,idle
2026-10-07T00:38:29.274,15588.0,0.0,0.0,0.0,0.0,0.0,6372.0,1876.0,15844.0,-491.0,970.0,idle
2026-10-07T00:38:29.322,15638.0,0.0,0.0,0.0,0.0,0.0,6512.0,1812.0,15784.0,-483.0,973.0,idle
2026-10-07T00:38:29.370,15688.0,0.0,0.0,0.0,0.0,0.0,6516.0,1888.0,15896.0,-450.0,947.0,idle
2026-10-07T00:38:29.423,15738.0,0.0,0.0,0.0,0.0,0.0,6520.0,2088.0,15820.0,-508.0,1013.0,idle
2026-10-07T00:38:29.473,15788.0,0.0,0.0,0.0,0.0,0.0,6448.0,1800.0,16000.0,-545.0,977.0,idle
2026-10-07T00:38:29.521,15838.0,0.0,0.0,0.0,0.0,0.0,6468.0,1828.0,15800.0,-454.0,988.0,idle
2026-10-07T00:38:29.573,15888.0,0.0,0.0,0.0,0.0,0.0,6564.0,1924.0,15928.0,-444.0,959.0,idle
2026-10-07T00:38:29.617,15938.0,0.0,0.0,0.0,0.0,0.0,6612.0,2000.0,15840.0,-476.0,1003.0,idle
2026-10-07T00:38:29.669,15988.0,0.0,0.0,0.0,0.0,0.0,6492.0,1944.0,15868.0,-549.0,1043.0,idle
2026-10-07T00:38:29.722,16038.0,0.0,0.0,0.0,0.0,0.0,6568.0,1708.0,15868.0,-366.0,842.0,idle
2026-10-07T00:38:29.777,16088.0,0.0,0.0,0.0,0.0,0.0,6628.0,1928.0,15820.0,-393.0,926.0,idle
2026-10-07T00:38:29.823,16138.0,0.0,0.0,0.0,0.0,0.0,6388.0,1908.0,15980.0,-527.0,1041.0,idle
2026-10-07T00:38:29.873,16188.0,0.0,0.0,0.0,0.0,0.0,6624.0,1840.0,15816.0,-493.0,740.0,idle
2026-10-07T00:38:29.926,16238.0,0.0,0.0,0.0,0.0,0.0,6812.0,1868.0,15816.0,-424.0,1041.0,idle
2026-10-07T00:38:29.974,16288.0,0.0,0.0,0.0,0.0,0.0,6460.0,1972.0,15860.0,-588.0,1048.0,idle
2026-10-07T00:38:30.022,16338.0,0.0,0.0,0.0,0.0,0.0,6508.0,1992.0,15828.0,-683.0,1214.0,idle
2026-10-07T00:38:30.077,16388.0,0.0,0.0,0.0,0.0,0.0,6460.0,1668.0,15816.0,-522.0,990.0,idle
2026-10-07T00:38:30.127,16438.0,0.0,0.0,0.0,0.0,0.0,6340.0,1916.0,16000.0,-519.0,993.0,idle
2026-10-07T00:38:30.169,16488.0,0.0,0.0,0.0,0.0,0.0,6640.0,1732.0,15964.0,-405.0,832.0,idle
2026-10-07T00:38:30.223,16538.0,0.0,0.0,0.0,0.0,0.0,6724.0,2060.0,15748.0,-448.0,858.0,idle
2026-10-07T00:38:30.271,16588.0,0.0,0.0,0.0,0.0,0.0,6580.0,1984.0,15920.0,-609.0,1202.0,idle
2026-10-07T00:38:30.324,16638.0,0.0,0.0,0.0,0.0,0.0,6360.0,1780.0,15832.0,-460.0,999.0,idle
2026-10-07T00:38:30.372,16688.0,0.0,0.0,0.0,0.0,0.0,6476.0,1908.0,15896.0,-453.0,934.0,idle
2026-10-07T00:38:30.415,16738.0,0.0,0.0,0.0,0.0,0.0,6760.0,2028.0,15588.0,-511.0,781.0,idle
2026-10-07T00:38:30.468,16788.0,0.0,0.0,0.0,0.0,0.0,6684.0,1900.0,15752.0,-563.0,1175.0,idle
2026-10-07T00:38:30.524,16838.0,0.0,0.0,0.0,0.0,0.0,6360.0,1864.0,16084.0,-540.0,1051.0,idle
2026-10-07T00:38:30.575,16888.0,0.0,0.0,0.0,0.0,0.0,6544.0,1716.0,15812.0,-420.0,839.0,idle
2026-10-07T00:38:30.619,16938.0,0.0,0.0,0.0,0.0,0.0,6680.0,1888.0,15884.0,-406.0,923.0,idle
2026-10-07T00:38:30.678,16988.0,0.0,0.0,0.0,0.0,0.0,6608.0,1940.0,15812.0,-467.0,1010.0,idle
2026-10-07T00:38:30.724,17038.0,0.0,0.0,0.0,0.0,0.0,6476.0,1972.0,15864.0,-458.0,1145.0,idle
2026-10-07T00:38:30.768,17088.0,0.0,0.0,0.0,0.0,0.0,6620.0,2008.0,15824.0,-519.0,882.0,idle
2026-10-07T00:38:30.821,17138.0,0.0,0.0,0.0,0.0,0.0,6548.0,1916.0,15788.0,-501.0,971.0,idle
2026-10-07T00:38:30.874,17188.0,0.0,0.0,0.0,0.0,0.0,6440.0,1868.0,16052.0,-449.0,915.0,idle
2026-10-07T00:38:30.924,17238.0,0.0,0.0,0.0,0.0,0.0,6672.0,1860.0,15728.0,-471.0,896.0,idle
2026-10-07T00:38:30.970,17288.0,0.0,0.0,0.0,0.0,0.0,6744.0,2116.0,15884.0,-526.0,1062.0,idle
2026-10-07T00:38:31.023,17338.0,0.0,0.0,0.0,0.0,0.0,6664.0,1876.0,15800.0,-569.0,1011.0,idle
2026-10-07T00:38:31.073,17388.0,0.0,0.0,0.0,0.0,0.0,6448.0,1780.0,15888.0,-556.0,1202.0,idle
2026-10-07T00:38:31.121,17438.0,0.0,0.0,0.0,0.0,0.0,6484.0,1836.0,15824.0,-478.0,968.0,idle
2026-10-07T00:38:31.172,17488.0,0.0,0.0,0.0,0.0,0.0,6544.0,1928.0,15996.0,-454.0,895.0,idle
2026-10-07T00:38:31.217,17538.0,0.0,0.0,0.0,0.0,0.0,6612.0,1936.0,15956.0,-478.0,963.0,idle
2026-10-07T00:38:31.278,17588.0,0.0,0.0,0.0,0.0,0.0,6584.0,1884.0,15880.0,-560.0,1038.0,idle
2026-10-07T00:38:31.322,17638.0,0.0,0.0,0.0,0.0,0.0,6592.0,1876.0,15860.0,-473.0,1032.0,idle
2026-10-07T00:38:31.365,17688.0,0.0,0.0,0.0,0.0,0.0,6476.0,1984.0,15924.0,-427.0,1086.0,idle
2026-10-07T00:38:31.423,17738.0,0.0,0.0,0.0,0.0,0.0,6480.0,1952.0,15900.0,-447.0,972.0,idle
2026-10-07T00:38:31.474,17788.0,0.0,0.0,0.0,0.0,0.0,6600.0,2036.0,15720.0,-515.0,1014.0,idle
2026-10-07T00:38:31.527,17838.0,0.0,0.0,0.0,0.0,0.0,6608.0,1836.0,15852.0,-476.0,1008.0,idle
2026-10-07T00:38:31.578,17888.0,0.0,0.0,0.0,0.0,0.0,6460.0,1912.0,15936.0,-506.0,1106.0,idle
2026-10-07T00:38:31.621,17938.0,0.0,0.0,0.0,0.0,0.0,6432.0,1932.0,15796.0,-466.0,973.0,idle
2026-10-07T00:38:31.675,17988.0,0.0,0.0,0.0,0.0,0.0,6468.0,1924.0,15888.0,-489.0,944.0,idle
2026-10-07T00:38:31.724,18038.0,0.0,0.0,0.0,0.0,0.0,6704.0,2032.0,15760.0,-409.0,870.0,idle
2026-10-07T00:38:31.770,18088.0,0.0,0.0,0.0,0.0,0.0,6492.0,2044.0,15848.0,-432.0,1098.0,idle
2026-10-07T00:38:31.823,18138.0,0.0,0.0,0.0,0.0,0.0,6588.0,1900.0,15948.0,-430.0,801.0,idle
2026-10-07T00:38:31.866,18188.0,0.0,0.0,0.0,0.0,0.0,6568.0,1892.0,15920.0,-420.0,1048.0,idle
2026-10-07T00:38:31.919,18238.0,0.0,0.0,0.0,0.0,0.0,6496.0,2008.0,16028.0,-466.0,967.0,idle
2026-10-07T00:38:31.973,18288.0,0.0,0.0,0.0,0.0,0.0,6560.0,1904.0,15884.0,-420.0,944.0,idle
2026-10-07T00:38:32.015,18338.0,0.0,0.0,0.0,0.0,0.0,6512.0,1992.0,15816.0,-485.0,856.0,idle
2026-10-07T00:38:32.069,18388.0,0.0,0.0,0.0,0.0,0.0,6792.0,1848.0,15756.0,-430.0,929.0,idle
2026-10-07T00:38:32.122,18438.0,0.0,0.0,0.0,0.0,0.0,6676.0,2052.0,15768.0,-442.0,1027.0,idle
2026-10-07T00:38:32.175,18488.0,0.0,0.0,0.0,0.0,0.0,6608.0,1960.0,15912.0,-516.0,979.0,idle
2026-10-07T00:38:32.218,18538.0,0.0,0.0,0.0,0.0,0.0,6656.0,1924.0,15756.0,-579.0,1021.0,idle
2026-10-07T00:38:32.271,18588.0,0.0,0.0,0.0,0.0,0.0,6548.0,1924.0,15828.0,-461.0,1110.0,idle
2026-10-07T00:38:32.325,18638.0,0.0,0.0,0.0,0.0,0.0,6484.0,2080.0,15860.0,-519.0,969.0,idle
2026-10-07T00:38:32.368,18688.0,0.0,0.0,0.0,0.0,0.0,6608.0,1828.0,15804.0,-572.0,922.0,idle
2026-10-07T00:38:32.421,18738.0,0.0,0.0,0.0,0.0,0.0,6732.0,1912.0,15936.0,-485.0,920.0,idle
2026-10-07T00:38:32.474,18788.0,0.0,0.0,0.0,0.0,0.0,6696.0,1940.0,15852.0,-474.0,1021.0,idle
2026-10-07T00:38:32.523,18838.0,0.0,0.0,0.0,0.0,0.0,6548.0,1956.0,15792.0,-441.0,1083.0,idle
2026-10-07T00:38:32.570,18888.0,0.0,0.0,0.0,0.0,0.0,6620.0,1856.0,15860.0,-509.0,838.0,idle
2026-10-07T00:38:32.624,18938.0,0.0,0.0,0.0,0.0,0.0,6660.0,1796.0,15800.0,-475.0,1007.0,idle
2026-10-07T00:38:32.672,18988.0,0.0,0.0,0.0,0.0,0.0,6584.0,2020.0,16008.0,-474.0,981.0,idle
2026-10-07T00:38:32.719,19038.0,0.0,0.0,0.0,0.0,0.0,6584.0,1812.0,15752.0,-453.0,942.0,idle
2026-10-07T00:38:32.773,19088.0,0.0,0.0,0.0,0.0,0.0,6724.0,1940.0,15800.0,-449.0,885.0,idle
2026-10-07T00:38:32.826,19138.0,0.0,0.0,0.0,0.0,0.0,6600.0,1940.0,15788.0,-488.0,1152.0,idle
2026-10-07T00:38:32.869,19188.0,0.0,0.0,0.0,0.0,0.0,6484.0,1988.0,15856.0,-442.0,1047.0,idle
2026-10-07T00:38:32.922,19238.0,0.0,0.0,0.0,0.0,0.0,6620.0,1900.0,15840.0,-454.0,866.0,idle
2026-10-07T00:38:32.965,19288.0,0.0,0.0,0.0,0.0,0.0,6748.0,1948.0,15772.0,-480.0,1066.0,idle
2026-10-07T00:38:33.023,19338.0,0.0,0.0,0.0,0.0,0.0,6584.0,1908.0,15852.0,-519.0,1091.0,idle
2026-10-07T00:38:33.071,19388.0,0.0,0.0,0.0,0.0,0.0,6560.0,1928.0,15748.0,-519.0,1087.0,idle
2026-10-07T00:38:33.125,19438.0,0.0,0.0,0.0,0.0,0.0,6608.0,2024.0,15940.0,-553.0,1000.0,idle
2026-10-07T00:38:33.173,19488.0,0.0,0.0,0.0,0.0,0.0,6576.0,1856.0,15752.0,-496.0,1129.0,idle
2026-10-07T00:38:33.221,19538.0,0.0,0.0,0.0,0.0,0.0,6536.0,2036.0,15936.0,-499.0,1126.0,idle
2026-10-07T00:38:33.274,19588.0,0.0,0.0,0.0,0.0,0.0,6676.0,1864.0,15632.0,-570.0,1042.0,idle
2026-10-07T00:38:33.324,19638.0,0.0,0.0,0.0,0.0,0.0,6636.0,1976.0,15788.0,-548.0,1155.0,idle
2026-10-07T00:38:33.370,19688.0,0.0,0.0,0.0,0.0,0.0,6460.0,1724.0,15932.0,-483.0,1014.0,idle
2026-10-07T00:38:33.428,19738.0,0.0,0.0,0.0,0.0,0.0,6468.0,2024.0,15936.0,-488.0,986.0,idle
2026-10-07T00:38:33.466,19788.0,0.0,0.0,0.0,0.0,0.0,6604.0,1852.0,15968.0,-525.0,1024.0,idle
2026-10-07T00:38:33.523,19838.0,0.0,0.0,0.0,0.0,0.0,6548.0,1952.0,15932.0,-537.0,1083.0,idle
2026-10-07T00:38:33.573,19888.0,0.0,0.0,0.0,0.0,0.0,6444.0,1952.0,15964.0,-484.0,1042.0,idle
2026-10-07T00:38:33.626,19938.0,0.0,0.0,0.0,0.0,0.0,6604.0,1924.0,15940.0,-492.0,924.0,idle
